40	Head	00b4120a												Throax	00b411e8												LUpArm	00b411d9												LFoArm	00b41148												RUpArm	00b411db												RFoArm	00b41204												Waist	00b411f7												Lthigh	00b411f4												Lshank	00b4111b												Rthigh	00b411c8												Rshank	00b411ee												
PacketCount	q0	q1	q2	q3	accX	accY	accZ	gyrX	gyrY	gyrZ	magX	magY	magZ	q0	q1	q2	q3	accX	accY	accZ	gyrX	gyrY	gyrZ	magX	magY	magZ	q0	q1	q2	q3	accX	accY	accZ	gyrX	gyrY	gyrZ	magX	magY	magZ	q0	q1	q2	q3	accX	accY	accZ	gyrX	gyrY	gyrZ	magX	magY	magZ	q0	q1	q2	q3	accX	accY	accZ	gyrX	gyrY	gyrZ	magX	magY	magZ	q0	q1	q2	q3	accX	accY	accZ	gyrX	gyrY	gyrZ	magX	magY	magZ	q0	q1	q2	q3	accX	accY	accZ	gyrX	gyrY	gyrZ	magX	magY	magZ	q0	q1	q2	q3	accX	accY	accZ	gyrX	gyrY	gyrZ	magX	magY	magZ	q0	q1	q2	q3	accX	accY	accZ	gyrX	gyrY	gyrZ	magX	magY	magZ	q0	q1	q2	q3	accX	accY	accZ	gyrX	gyrY	gyrZ	magX	magY	magZ	q0	q1	q2	q3	accX	accY	accZ	gyrX	gyrY	gyrZ	magX	magY	magZ	
0	-0.884055	-0.0109584	0.467253	-0.000814965	8.66417	0.056504	5.89295	-0.00859958	-0.024409	-0.0179609	-0.612793	-0.0219727	-0.821045	0.619733	-0.0581861	-0.782652	0.00104777	9.612	-0.741595	-2.21078	-0.0269733	0.029637	-0.0195793	-0.928711	-0.0192871	-0.0622559	0.770912	-0.150033	-0.61896	-0.00851646	9.57595	-2.23898	2.02374	-0.0256377	-0.000329933	-0.00280317	-0.982178	0.223389	-0.484863	0.74581	-0.174425	-0.58422	-0.268385	9.47722	0.426912	2.49446	-0.0209606	-0.00581424	-0.00642837	-0.872559	0.248047	-0.537109	0.748372	0.158766	-0.642634	-0.0418789	9.49051	2.87312	1.27159	0.0250624	0.0165614	-0.0195363	-0.847656	-0.380127	-0.533447	0.758365	0.112715	-0.63863	0.0657973	9.76119	-0.180208	5.39814	0.0114737	0.0143471	-0.0182828	-0.943115	-0.204346	-0.614014	0.592366	0.0265134	-0.804159	0.0415772	9.19323	-0.397064	-2.83684	0.00149297	0.0337153	-0.0116415	-1.05518	-0.0285645	-0.0109863	0.858764	-0.160334	-0.457468	-0.16595	8.86014	-1.25906	5.58748	0.00864699	0.0204894	-0.0160658	-0.784424	0.220459	-0.729492	0.0806321	0.959256	0.268419	-0.0357292	-0.885918	3.31822	-8.59286	0.0169108	0.00556798	-0.0245912	-0.266357	-0.351074	1.01123	0.959548	0.0888614	-0.253436	0.0845056	5.26761	1.42528	8.89308	0.00797702	0.00158382	0.00432483	-0.174316	-0.223633	-1.06348	0.0264504	0.0197533	0.997388	0.0642415	-0.462867	1.45501	-9.64386	0.00354335	0.00515935	-0.00780696	-0.428711	-0.111816	1.06812	
1	-0.883925	-0.0111876	0.467495	-0.000790182	8.66917	0.156496	5.90066	0.016542	-0.0252504	-0.0109913	-0.614502	-0.0307617	-0.81665	0.620184	-0.0585417	-0.782269	0.000786246	9.59459	-0.732867	-2.17323	-0.0275176	0.0403688	-0.0119304	-0.928955	-0.0170898	-0.0600586	0.770924	-0.150012	-0.618951	-0.00846802	9.50116	-2.12776	1.78816	0.0266758	-0.00370915	-0.00453126	-0.977783	0.216797	-0.489258	0.745647	-0.174583	-0.584363	-0.268423	9.52703	0.481917	2.56678	-0.00115438	-0.00163376	-0.00305519	-0.86792	0.241455	-0.537109	0.748439	0.158295	-0.642671	-0.0419126	9.40244	2.83572	1.2536	-0.0260234	0.00874174	-0.00319727	-0.856201	-0.382324	-0.531006	0.758439	0.112843	-0.63851	0.0658858	9.74418	-0.161021	5.35681	-0.00634282	0.0163349	-0.015795	-0.952148	-0.197754	-0.62085	0.592832	0.025981	-0.803864	0.0409706	9.18662	-0.34422	-2.89217	-0.0143833	0.0407968	-0.0152104	-1.05518	-0.0285645	-0.0090332	0.858775	-0.160275	-0.457453	-0.165995	8.84313	-1.24739	5.59968	0.00619441	0.0146743	-0.0186206	-0.773682	0.220459	-0.727295	0.0808154	0.959107	0.268911	-0.0356152	-0.879026	3.29911	-8.59422	0.00740705	0.00480411	-0.0240381	-0.270752	-0.35791	1.00464	0.959523	0.0891032	-0.253463	0.084459	5.30017	1.43827	8.92642	0.0148205	0.00515234	-0.000191571	-0.178711	-0.230469	-1.06348	0.0265354	0.0197381	0.997376	0.0644078	-0.448845	1.47153	-9.64098	-0.00177917	0.00266127	-0.00962348	-0.42627	-0.11377	1.07031	
2	-0.883792	-0.0112306	0.467745	-0.000683445	8.69521	0.290816	5.91347	-0.000463862	-0.0127877	-0.00485599	-0.616699	-0.0307617	-0.814453	0.620435	-0.0589543	-0.782039	0.000468985	9.58408	-0.847045	-2.22471	-0.0370286	0.0277701	-0.0139355	-0.926758	-0.0148926	-0.0671387	0.770721	-0.150354	-0.619114	-0.00895893	9.5288	-2.17773	2.04579	-0.0352168	0.00100036	-0.00751018	-0.977783	0.225586	-0.482666	0.745476	-0.174853	-0.584399	-0.268645	9.48689	0.41775	2.57366	-0.0242595	-0.0075719	-0.00429779	-0.868164	0.248047	-0.534912	0.748419	0.157985	-0.642774	-0.041859	9.39917	2.92634	1.33045	-0.0198314	-0.00337524	-0.00495689	-0.854248	-0.37793	-0.535645	0.758444	0.112741	-0.638518	0.0659329	9.66308	-0.249192	5.2681	-0.00546942	0.0125719	-0.010483	-0.949707	-0.202148	-0.618408	0.593028	0.0258333	-0.803732	0.0407982	9.17151	-0.339598	-2.88006	0.00070438	0.0157219	-0.00867309	-1.05078	-0.0285645	-0.0109863	0.858776	-0.160283	-0.457437	-0.166028	8.85652	-1.23951	5.58947	0.00237383	0.0162435	-0.017916	-0.780273	0.220459	-0.724854	0.0808154	0.959107	0.268911	-0.0356152	-0.879026	3.29911	-8.59422	0.00740705	0.00480411	-0.0240381	-0.270752	-0.35791	1.00464	0.959482	0.0892839	-0.253562	0.0844324	5.31419	1.4194	8.85164	0.0156274	0.00136995	-0.00192897	-0.180908	-0.226074	-1.06348	0.0265407	0.0197499	0.997373	0.0644394	-0.477061	1.46747	-9.62705	0.00122621	0.0059624	-0.00725375	-0.422119	-0.109375	1.06348	
3	-0.884074	-0.0108387	0.467221	-0.000234309	8.61805	0.166727	5.95707	-0.0191185	0.024413	-0.00683112	-0.608154	-0.0285645	-0.81665	0.620198	-0.059317	-0.7822	0.000286792	9.58088	-0.704378	-2.18158	-0.0234982	-0.0164009	-0.015253	-0.928955	-0.0126953	-0.0603027	0.770512	-0.150437	-0.619352	-0.00912411	9.41847	-2.17104	1.80726	0.014313	-0.0179972	-0.0129287	-0.984131	0.217041	-0.482422	0.745242	-0.174923	-0.584598	-0.268815	9.43168	0.67972	2.51687	0.0110039	-0.00354653	-0.0069015	-0.865723	0.243652	-0.541504	0.748243	0.158188	-0.642945	-0.0416008	9.43566	3.10423	1.26806	0.0309725	0.0027872	-0.0127886	-0.855957	-0.388916	-0.533447	0.758293	0.112904	-0.638645	0.0661615	9.78012	-0.112694	5.34786	-0.00801458	0.00389706	-0.0115868	-0.95166	-0.206543	-0.611816	0.593265	0.0256099	-0.803572	0.0406692	9.19147	-0.350153	-2.852	0.000698947	0.0355422	-0.0106192	-1.04858	-0.0285645	-0.0109863	0.858803	-0.160166	-0.457404	-0.166088	8.87814	-1.27712	5.58085	0.0111029	0.0171666	-0.0180163	-0.782471	0.222656	-0.731934	0.0808154	0.959107	0.268911	-0.0356152	-0.879026	3.29911	-8.59422	0.00740705	0.00480411	-0.0240381	-0.270752	-0.35791	1.00464	0.959466	0.0893349	-0.253619	0.0843897	5.26758	1.45039	8.8999	0.00408089	0.00746139	0.00262901	-0.174316	-0.22583	-1.05884	0.0265626	0.0198004	0.997366	0.0645203	-0.455888	1.47946	-9.64581	0.000806898	0.0052372	-0.00601492	-0.424072	-0.115967	1.06812	
4	-0.883977	-0.0101828	0.467419	-9.41009e-05	8.53591	0.16736	5.94068	-0.0256469	-0.0302957	0.00365173	-0.610352	-0.0241699	-0.818848	0.620175	-0.0592105	-0.782226	0.00033087	9.62009	-0.792411	-2.28426	-0.000442702	0.0212557	-0.0210046	-0.927002	-0.0126953	-0.0649414	0.770342	-0.150569	-0.619527	-0.00939484	9.6092	-2.19277	1.91397	-0.0212763	-0.00181533	-0.00894041	-0.982178	0.225586	-0.482666	0.745219	-0.17481	-0.584679	-0.268776	9.58311	0.519924	2.64271	0.00874491	0.00487429	0.00163191	-0.861572	0.250244	-0.530518	0.748086	0.158139	-0.643135	-0.04167	9.51491	2.7113	1.26794	0.015134	0.00424595	-0.0128319	-0.856445	-0.37793	-0.531006	0.758135	0.113122	-0.638775	0.0663395	9.75997	-0.206217	5.48364	0.023006	0.00429201	-0.0188027	-0.95166	-0.206543	-0.618408	0.593445	0.0252802	-0.803477	0.0401073	9.26963	-0.330022	-2.90542	-0.0207023	0.0311915	-0.0205846	-1.05273	-0.0349121	-0.0109863	0.858802	-0.160107	-0.457419	-0.166108	8.82178	-1.24816	5.59681	0.00699219	0.0139817	-0.0187119	-0.780029	0.218262	-0.727295	0.0808154	0.959107	0.268911	-0.0356152	-0.879026	3.29911	-8.59422	0.00740705	0.00480411	-0.0240381	-0.270752	-0.35791	1.00464	0.959464	0.0892819	-0.25367	0.0843166	5.25035	1.37805	8.92261	0.00265652	0.00721184	0.000501464	-0.183105	-0.230469	-1.05884	0.0265969	0.0198121	0.997365	0.0645279	-0.473697	1.49021	-9.64716	0.00325098	0.00368154	-0.00726074	-0.421875	-0.11377	1.06592	
5	-0.88339	-0.00983324	0.468536	8.94752e-05	8.68782	0.0407751	5.87612	-0.00961798	-0.0533548	-0.000133026	-0.617188	-0.0219727	-0.8125	0.620026	-0.0588017	-0.782375	0.000531994	9.44865	-0.709958	-2.29951	0.0148752	-0.00404978	-0.029754	-0.928955	-0.0170898	-0.0576172	0.770521	-0.150409	-0.619339	-0.00966725	9.48833	-2.22261	1.79481	0.0121283	0.0192189	-0.00847254	-0.981934	0.221191	-0.484863	0.745183	-0.175027	-0.584613	-0.268878	9.54244	0.581449	2.40775	0.0073144	0.00395329	0.00247477	-0.865967	0.248047	-0.541504	0.748014	0.158393	-0.643181	-0.0412864	9.4481	2.84944	1.2612	-0.0067264	0.0122593	-0.00218939	-0.86084	-0.37793	-0.531006	0.757902	0.113649	-0.638928	0.0666281	9.69627	-0.197683	5.31889	0.0329435	0.00102605	-0.0235923	-0.94751	-0.204346	-0.612061	0.593352	0.0251365	-0.803545	0.0402064	9.20759	-0.364275	-2.88299	0.0191951	0.0156894	-0.00773827	-1.05298	-0.0285645	-0.0090332	0.858675	-0.159988	-0.457687	-0.166143	8.90708	-1.2533	5.57881	0.0107132	0.00417359	-0.0240462	-0.780273	0.222656	-0.724854	0.0804032	0.958657	0.270651	-0.0354951	-0.88329	3.31645	-8.58977	0.00504035	0.00448904	-0.0232132	-0.270996	-0.353271	1.00903	0.95934	0.0894812	-0.254077	0.0842955	5.32323	1.45355	8.90251	0.00979773	-0.00997729	0.0026772	-0.180908	-0.230469	-1.06104	0.0267284	0.0197192	0.997358	0.0645993	-0.480673	1.46825	-9.64803	-0.00320302	-0.000469302	-0.00892852	-0.42627	-0.118408	1.07056	
6	-0.882917	-0.0101371	0.46942	-6.22704e-05	8.68649	0.122475	5.86516	0.0188744	-0.0395088	2.29476e-05	-0.616943	-0.0263672	-0.814697	0.619721	-0.0585457	-0.782635	0.000530949	9.42694	-0.757846	-2.27054	-0.00660633	0.000173862	-0.0268398	-0.926514	-0.0212402	-0.0551758	0.770363	-0.150229	-0.61958	-0.00966532	9.40605	-2.17332	1.88554	0.0129836	-0.0179097	-0.0135043	-0.97998	0.221191	-0.487061	0.745193	-0.174967	-0.584638	-0.268836	9.46126	0.509269	2.50541	0.0100116	0.00429875	-0.000502044	-0.86792	0.243652	-0.534912	0.747702	0.159249	-0.643388	-0.040415	9.41375	3.00421	1.17999	0.0463055	-0.00367417	-0.0144058	-0.854004	-0.382324	-0.526367	0.757657	0.113694	-0.639186	0.0668677	9.63983	-0.13148	5.25814	0.00395731	0.000634096	-0.00767343	-0.953857	-0.20874	-0.616211	0.593401	0.0248807	-0.803516	0.040223	9.13827	-0.299727	-2.90524	0.00644328	0.0135818	-0.0103237	-1.05298	-0.0263672	-0.0090332	0.858691	-0.159827	-0.457707	-0.166162	8.84344	-1.19497	5.62786	0.0084787	0.0172448	-0.0197804	-0.778076	0.220459	-0.727295	0.0803915	0.958472	0.271325	-0.0353798	-0.888352	3.32067	-8.58645	0.00319471	0.00526651	-0.0235897	-0.273193	-0.353271	1.00684	0.959233	0.0895815	-0.254466	0.0842261	5.31483	1.484	8.84204	0.00445956	-0.00172498	0.000254736	-0.18335	-0.226074	-1.06348	0.0268217	0.0197199	0.997352	0.0646617	-0.461764	1.47503	-9.63473	0.00382095	0.00273521	-0.00760903	-0.42627	-0.115967	1.07715	
7	-0.882505	-0.0107181	0.47018	-9.04998e-05	8.61994	0.113313	5.85667	0.0248162	-0.0463374	-0.0178803	-0.621338	-0.0285645	-0.808105	0.619536	-0.0584805	-0.782787	0.000512176	9.57463	-0.700691	-2.23428	-0.00720825	-0.00535326	-0.0244446	-0.920166	-0.0170898	-0.0600586	0.770423	-0.149852	-0.619597	-0.00957598	9.48616	-2.14943	1.93811	0.0159311	0.00277108	-0.0075247	-0.981934	0.217041	-0.484619	0.745028	-0.174863	-0.584836	-0.268932	9.48008	0.504133	2.65	-0.00868524	-0.0057304	-0.0119216	-0.861328	0.24585	-0.52832	0.747595	0.159178	-0.643535	-0.0403489	9.42238	2.82369	1.14487	0.000132782	-0.00700651	-0.00555014	-0.851807	-0.384521	-0.521973	0.757516	0.11403	-0.639258	0.0671959	9.73691	-0.161028	5.3582	0.0135588	0.0062522	-0.0147285	-0.949463	-0.20874	-0.609619	0.593513	0.0245534	-0.803446	0.0401588	9.22678	-0.354585	-2.80134	0.00902788	0.0177091	-0.00867547	-1.05518	-0.0285645	-0.0109863	0.858707	-0.159829	-0.45769	-0.16612	8.82449	-1.19285	5.60955	0.00497267	0.0153792	-0.0102373	-0.771729	0.224854	-0.731934	0.080451	0.958446	0.271407	-0.0353105	-0.89221	3.32171	-8.59302	0.0078053	0.00718597	-0.0219935	-0.270996	-0.355713	1.01147	0.959255	0.0895509	-0.254409	0.0841772	5.27578	1.37773	8.83612	0.00519425	0.0183901	0.00114112	-0.1875	-0.228271	-1.06348	0.0268327	0.0197252	0.997355	0.0646066	-0.485839	1.4629	-9.63712	0.00603927	0.00658911	-0.00820695	-0.424316	-0.111572	1.07495	
8	-0.881934	-0.0116458	0.471229	0.000149653	8.75577	0.252927	5.85114	0.0268263	-0.0452563	-0.0263024	-0.621338	-0.0263672	-0.816895	0.61964	-0.0587802	-0.782682	0.000179978	9.46442	-0.798941	-2.29673	-0.0201848	0.0268727	-0.0193276	-0.926514	-0.0192871	-0.0600586	0.770184	-0.150577	-0.619707	-0.0102961	9.62073	-2.18873	1.86904	-0.0601733	0.0157695	-0.00300657	-0.984131	0.217041	-0.477783	0.744862	-0.174972	-0.584935	-0.269103	9.47974	0.627772	2.47247	0.0075945	-0.0018156	-0.00280968	-0.86792	0.243652	-0.532715	0.747641	0.159147	-0.643492	-0.0402943	9.45796	2.89081	1.16287	-0.0208101	0.0102529	-0.000313461	-0.854248	-0.380127	-0.521973	0.757487	0.114017	-0.639275	0.0673903	9.69752	-0.108522	5.31036	0.00193972	0.0117234	-0.0134153	-0.949463	-0.206543	-0.611816	0.593747	0.0242511	-0.803274	0.0403439	9.19924	-0.351149	-2.92383	0.0159175	0.0326013	-0.00458989	-1.05322	-0.0241699	-0.0153809	0.85865	-0.159965	-0.457756	-0.166105	8.89011	-1.29631	5.57141	0.00429491	0.00918679	-0.0155979	-0.776123	0.224854	-0.729736	0.080449	0.958323	0.271852	-0.0352239	-0.884236	3.32485	-8.57597	0.0116718	0.00553845	-0.0237841	-0.268555	-0.355469	1.00928	0.959262	0.0896778	-0.254341	0.084175	5.30302	1.40055	8.89933	0.0130223	0.0160939	-0.000567051	-0.185303	-0.230469	-1.07031	0.0268741	0.0197277	0.997349	0.0646734	-0.456527	1.46566	-9.62747	0.00159125	0.00528876	-0.0084187	-0.426514	-0.109375	1.07495	
9	-0.88173	-0.0118946	0.471605	0.000213017	8.75136	0.287784	5.83907	0.0161334	-0.0374755	-0.0143555	-0.623291	-0.0307617	-0.81665	0.619296	-0.0588605	-0.782948	7.99201e-05	9.54547	-0.772077	-2.31022	-0.0215223	-0.00837921	-0.0240663	-0.930908	-0.0192871	-0.0600586	0.770031	-0.150151	-0.620002	-0.0102458	9.49712	-2.04486	1.87579	0.0177932	-0.0114229	-0.0193468	-0.97998	0.221191	-0.482422	0.744743	-0.175107	-0.584983	-0.26924	9.48765	0.494395	2.54331	-0.0106131	-0.00401104	-0.00465135	-0.86792	0.241455	-0.534912	0.747656	0.159083	-0.643508	-0.0400091	9.4939	2.8807	1.27746	0.0107416	0.00467887	-0.00471838	-0.858398	-0.382324	-0.528809	0.757453	0.114014	-0.639323	0.0673183	9.72447	-0.185332	5.36447	-0.00713846	0.00641113	-0.0222957	-0.953857	-0.20874	-0.609619	0.593825	0.0241806	-0.803219	0.0403291	9.25699	-0.402919	-2.91382	0.0156893	0.0197977	-0.0145804	-1.05298	-0.0263672	-0.00683594	0.858673	-0.159927	-0.457746	-0.16605	8.85755	-1.25331	5.57481	0.0103083	0.0157855	-0.0136794	-0.780273	0.220459	-0.729492	0.0805153	0.958292	0.271951	-0.035174	-0.892439	3.33403	-8.5937	0.00772758	0.00615822	-0.0245894	-0.266113	-0.357666	1.00464	0.959284	0.0897442	-0.25421	0.0842407	5.28955	1.47861	8.87412	0.00502096	0.0109868	0.00268625	-0.185303	-0.232666	-1.06567	0.0268705	0.0197478	0.99735	0.0646635	-0.476669	1.46867	-9.6571	0.00421352	0.00663954	-0.00701336	-0.428711	-0.111816	1.06592	
10	-0.881314	-0.0121116	0.472375	0.000266448	8.71721	0.266205	5.81589	0.006486	-0.0398829	-0.00539582	-0.623535	-0.0285645	-0.8125	0.619026	-0.0588399	-0.783164	1.23527e-05	9.5509	-0.739289	-2.21401	-0.00690413	0.00264039	-0.021711	-0.928955	-0.0170898	-0.0600586	0.769835	-0.150234	-0.620222	-0.0104291	9.54756	-2.07662	1.85641	0.0148989	-0.0131981	-0.0155749	-0.981934	0.221191	-0.475586	0.744624	-0.174945	-0.58517	-0.269269	9.4561	0.548259	2.51884	0.0066053	-0.00366372	-0.000262538	-0.870605	0.250244	-0.534912	0.74753	0.158973	-0.643678	-0.0400628	9.48887	2.77719	1.24288	-0.000408767	-0.00279722	-0.0127273	-0.854248	-0.380127	-0.526367	0.757271	0.114207	-0.639483	0.0675146	9.72779	-0.0873158	5.36294	0.000880266	0.000628036	-0.0163141	-0.95166	-0.20874	-0.607422	0.594175	0.0239204	-0.802978	0.0401236	9.15952	-0.368921	-2.77791	0.0114161	0.0303626	-0.015306	-1.05518	-0.0285645	-0.0131836	0.8587	-0.159898	-0.457707	-0.166045	8.87609	-1.2931	5.57936	0.00576011	0.0176631	-0.0172218	-0.775879	0.222656	-0.729736	0.0804275	0.958208	0.272276	-0.0351406	-0.888343	3.32001	-8.5876	0.00930178	0.00506713	-0.0232843	-0.273438	-0.351074	1.00684	0.959317	0.0898392	-0.254038	0.084287	5.29278	1.42543	8.8766	0.0058701	0.0125281	0.00140104	-0.180908	-0.230469	-1.06104	0.0268304	0.019777	0.997349	0.0646784	-0.470837	1.47428	-9.62934	0.00285785	0.0068567	-0.00676239	-0.41748	-0.11377	1.07031	
11	-0.880967	-0.0119314	0.473026	0.000401551	8.70536	0.224247	5.78206	-0.0116897	-0.0315608	-0.0045455	-0.625732	-0.0288086	-0.8125	0.619033	-0.0586507	-0.783172	-0.000165299	9.40811	-0.783392	-2.30604	-0.00563077	0.0122586	-0.0296771	-0.928711	-0.0192871	-0.0554199	0.769769	-0.150252	-0.620294	-0.0107267	9.46825	-2.21716	1.86216	-0.00637055	0.000530535	-0.0100422	-0.986328	0.219238	-0.482422	0.744531	-0.174868	-0.585286	-0.269324	9.53603	0.497242	2.41037	0.0180472	0.00456578	-0.00915199	-0.868164	0.24585	-0.532715	0.747328	0.159302	-0.643849	-0.0397805	9.44866	2.88156	1.22663	0.00903856	-0.00255937	-0.0146682	-0.852051	-0.380127	-0.52417	0.756972	0.114516	-0.639745	0.0678696	9.75287	-0.147523	5.35182	0.0217848	-0.00303101	-0.0136286	-0.951416	-0.210693	-0.607422	0.594272	0.0237787	-0.802913	0.0400703	9.19858	-0.357937	-2.7882	0.0107318	0.019916	-0.0115277	-1.05298	-0.0285645	-0.0109863	0.858765	-0.159691	-0.457659	-0.16604	8.8811	-1.20311	5.58609	0.0133718	0.0184255	-0.0208541	-0.778076	0.218262	-0.731934	0.0807278	0.958119	0.272517	-0.0350093	-0.876825	3.34022	-8.57825	0.000517598	0.00480531	-0.024008	-0.270508	-0.362549	1.01147	0.959358	0.0898986	-0.25388	0.0842306	5.29979	1.40063	8.85857	0.00924259	0.019306	-0.00171443	-0.180908	-0.228271	-1.06128	0.0269024	0.019821	0.997346	0.064684	-0.46631	1.48561	-9.63338	0.00441323	0.00441161	-0.00582557	-0.421631	-0.120361	1.06812	
12	-0.880738	-0.0117931	0.473457	0.000450061	8.68733	0.195383	5.80111	-0.0032958	-0.0220489	0.00273666	-0.62793	-0.0288086	-0.808105	0.618768	-0.0581476	-0.783419	2.30481e-05	9.53664	-0.692911	-2.26801	0.011267	-0.00161949	-0.0332714	-0.933105	-0.0212402	-0.0551758	0.769562	-0.149979	-0.620618	-0.0107235	9.44022	-2.09109	1.93613	0.0061978	-0.00973561	-0.00938647	-0.990723	0.221436	-0.480225	0.74435	-0.174692	-0.58556	-0.269343	9.45237	0.530692	2.56331	0.0142121	-0.00795703	-0.0109235	-0.86377	0.24585	-0.532715	0.747094	0.159679	-0.644037	-0.0396139	9.44749	2.82105	1.21065	0.0107699	-0.00197961	-0.0169758	-0.856201	-0.382324	-0.526367	0.756633	0.114734	-0.640068	0.0682365	9.67835	-0.156852	5.30055	0.021207	-0.00537416	-0.0142539	-0.958008	-0.20874	-0.609619	0.594106	0.0237968	-0.803028	0.0402139	9.29315	-0.359593	-2.96432	0.0225511	0.000523734	-0.0201431	-1.05078	-0.0263672	-0.0131836	0.858865	-0.159572	-0.457506	-0.16606	8.84163	-1.21547	5.58655	0.00800096	0.021905	-0.0196642	-0.780029	0.218506	-0.736572	0.0809147	0.95806	0.272687	-0.0348753	-0.883973	3.3245	-8.57987	0.00408753	0.00710643	-0.0216492	-0.268555	-0.35791	1.01147	0.959378	0.0899548	-0.253788	0.0842181	5.31585	1.44602	8.85019	0.00228696	0.0150759	0.00215371	-0.180908	-0.228271	-1.05884	0.0269191	0.0198212	0.997341	0.0647549	-0.484606	1.47748	-9.62313	0.00113601	0.00706858	-0.00784813	-0.42627	-0.118408	1.07495	
13	-0.880375	-0.0118147	0.474131	0.000636969	8.76245	0.214948	5.82225	-0.0035099	-0.0335694	-0.00973433	-0.62793	-0.0288086	-0.808105	0.618525	-0.0581183	-0.783613	-2.47881e-05	9.58594	-0.656591	-2.21349	-0.0108556	0.0028282	-0.0181796	-0.920166	-0.0168457	-0.0507812	0.769228	-0.150375	-0.620929	-0.0110612	9.50763	-2.26082	1.89103	-0.00489513	-0.00848841	-0.00702643	-0.986328	0.217041	-0.480225	0.744123	-0.174516	-0.585795	-0.269573	9.49043	0.528909	2.51222	0.0175167	-0.00574568	-0.0141376	-0.86792	0.243652	-0.534912	0.746907	0.159892	-0.644208	-0.0395062	9.40146	2.92986	1.11091	0.0205182	-0.0112011	-0.0176857	-0.860596	-0.382568	-0.52417	0.756385	0.114749	-0.640317	0.0686208	9.64075	-0.137111	5.30385	-0.0106697	0.00252228	-0.00434604	-0.953857	-0.206543	-0.607666	0.59425	0.0237291	-0.80293	0.0401033	9.27603	-0.342291	-2.88327	0.0091768	0.0262385	-0.0192465	-1.05078	-0.0307617	-0.0131836	0.858863	-0.159557	-0.457489	-0.166133	8.87705	-1.27508	5.60993	0.0054506	0.013058	-0.0201046	-0.77832	0.227051	-0.732178	0.0811452	0.957989	0.272874	-0.034807	-0.870937	3.33814	-8.58164	0.0052658	0.00309872	-0.023387	-0.268799	-0.351074	1.00684	0.959373	0.0900054	-0.253812	0.0841587	5.23804	1.45617	8.88813	0.00677541	0.0074006	0.000934484	-0.174072	-0.232422	-1.06567	0.0269143	0.0198318	0.997339	0.064788	-0.456848	1.47371	-9.66537	0.0013442	0.00679219	-0.00703159	-0.426514	-0.109375	1.06812	
14	-0.880022	-0.0117604	0.474786	0.000958311	8.73274	0.221551	5.78443	-0.0101963	-0.0312858	-0.0105774	-0.632324	-0.0288086	-0.80835	0.618305	-0.0580564	-0.783791	-0.000163192	9.44976	-0.844727	-2.43072	-0.0124103	-0.0060521	-0.0213524	-0.928711	-0.0192871	-0.0576172	0.769111	-0.15029	-0.621096	-0.0109746	9.47845	-2.10837	1.76489	-0.0106549	-0.00651102	-0.00371246	-0.984131	0.223389	-0.482666	0.743838	-0.174559	-0.586003	-0.269879	9.49505	0.562945	2.42152	0.0104136	-0.00322242	-0.0120638	-0.872314	0.241455	-0.532715	0.746669	0.160071	-0.644423	-0.0397782	9.43667	3.08515	1.18836	-0.000140441	-0.00120849	-0.0222301	-0.858643	-0.380371	-0.519531	0.756294	0.114708	-0.640429	0.0686481	9.77201	-0.121647	5.28264	-0.0143585	0.0103034	-0.00958009	-0.953857	-0.206543	-0.605469	0.594	0.0239951	-0.80311	0.0400213	9.1664	-0.331149	-2.87515	0.0266441	0.00574914	-0.0138727	-1.04858	-0.0285645	-0.0153809	0.858841	-0.159449	-0.457549	-0.166182	8.85746	-1.1935	5.62855	0.0064364	0.0115071	-0.0200545	-0.777832	0.216064	-0.727295	0.0812458	0.957913	0.273119	-0.0347428	-0.89839	3.33868	-8.59681	0.00872979	0.0038657	-0.0249126	-0.266357	-0.355469	1.00464	0.959311	0.0900956	-0.254016	0.0841454	5.31616	1.40878	8.85291	0.0122647	0.00393665	-0.000562471	-0.178467	-0.234619	-1.06787	0.026942	0.0197777	0.997335	0.0648554	-0.463678	1.47059	-9.63025	0.000861008	0.00399917	-0.00821919	-0.428467	-0.116211	1.07715	
15	-0.879734	-0.0117818	0.475319	0.00118045	8.6968	0.172562	5.73993	0.00224061	-0.0319278	-0.00716136	-0.625732	-0.0288086	-0.810303	0.617962	-0.0580613	-0.784061	-0.00015559	9.51405	-0.669653	-2.25535	-0.00943629	-0.0218555	-0.0196603	-0.924561	-0.0170898	-0.0578613	0.768871	-0.150592	-0.621315	-0.0112835	9.40296	-2.23115	1.86447	-0.0327638	-0.0174238	-0.00872911	-0.981934	0.217041	-0.482422	0.743661	-0.174139	-0.586275	-0.270048	9.56252	0.560837	2.51016	0.0144387	-0.0026455	-0.0174705	-0.867676	0.239258	-0.532715	0.746514	0.160134	-0.644589	-0.039728	9.32058	2.66522	1.22724	0.00824378	-0.00991196	-0.013546	-0.86084	-0.378174	-0.52417	0.756211	0.114625	-0.640533	0.0687279	9.53896	-0.11207	5.23368	-0.0042246	0.00266268	-0.00827454	-0.953857	-0.20874	-0.611816	0.593602	0.0237948	-0.803425	0.039734	9.19695	-0.366247	-2.82763	0.0112478	-0.0125892	-0.0158735	-1.05078	-0.0285645	-0.0109863	0.858844	-0.159481	-0.457537	-0.166168	8.87521	-1.22271	5.58553	0.00285337	0.0152162	-0.0140518	-0.775879	0.220459	-0.729736	0.0812876	0.957885	0.273203	-0.034756	-0.895547	3.33342	-8.57878	0.00963827	0.00217529	-0.0251583	-0.263672	-0.362305	1.00928	0.959294	0.0901015	-0.254078	0.0841512	5.31822	1.52852	8.84868	0.00283823	0.00583629	0.00371979	-0.180908	-0.230469	-1.06348	0.0269229	0.0197958	0.997332	0.0649024	-0.465571	1.47561	-9.61453	9.63846e-05	0.00784551	-0.00655869	-0.426514	-0.109375	1.06812	
16	-0.879205	-0.0120224	0.476291	0.00100369	8.72883	0.223088	5.69905	0.0173014	-0.0528521	0.00305504	-0.629883	-0.0332031	-0.808105	0.61776	-0.0577923	-0.78424	-0.000240163	9.55627	-0.724345	-2.26951	-0.000413629	-0.0040835	-0.0206084	-0.924561	-0.019043	-0.0529785	0.768738	-0.150154	-0.621592	-0.0109175	9.55861	-2.06135	1.78113	0.0277533	-0.013639	-0.00542663	-0.988525	0.221436	-0.478027	0.743609	-0.173891	-0.586387	-0.270107	9.50292	0.509266	2.49099	-0.00568115	0.0068585	-0.00739228	-0.868164	0.24585	-0.52832	0.746342	0.160339	-0.644732	-0.0398152	9.56734	2.93114	1.14735	0.00527481	-0.00197757	-0.0234576	-0.860352	-0.386963	-0.519531	0.756021	0.114606	-0.640715	0.0691543	9.66959	-0.228382	5.24546	0.00522778	0.00918494	-0.0107481	-0.958252	-0.206543	-0.601074	0.593369	0.024018	-0.803589	0.0397567	9.23255	-0.348728	-2.90144	0.0230387	0.0102865	-0.0240931	-1.05518	-0.0241699	-0.0090332	0.858833	-0.15949	-0.457574	-0.166118	8.83785	-1.23782	5.58219	0.0055553	0.0108684	-0.0143608	-0.784668	0.220459	-0.736572	0.0812876	0.957885	0.273203	-0.034756	-0.895547	3.33342	-8.57878	0.00963827	0.00217529	-0.0251583	-0.263672	-0.362305	1.00928	0.959249	0.0901023	-0.254233	0.0841925	5.26126	1.41289	8.84684	0.0096389	0.00527354	0.00379236	-0.180908	-0.230469	-1.06567	0.0268811	0.0196589	0.997341	0.0648178	-0.460373	1.47275	-9.63902	0.00468298	0.00417945	-0.010081	-0.428467	-0.116211	1.06348	
17	-0.878481	-0.0123038	0.477618	0.000584167	8.79023	0.189105	5.66987	0.0187814	-0.064051	0.010066	-0.634277	-0.0354004	-0.803955	0.617706	-0.0574496	-0.784308	-2.34149e-06	9.45154	-0.727363	-2.36543	0.0161488	0.00324622	-0.025737	-0.928711	-0.0192871	-0.0600586	0.768688	-0.150484	-0.621572	-0.0110547	9.55465	-2.40714	1.69552	0.0214233	0.0064368	0.00221839	-0.986328	0.221436	-0.473389	0.74382	-0.173457	-0.586365	-0.269854	9.53653	0.607842	2.46282	0.0275955	0.0165783	-1.09043e-05	-0.865479	0.239258	-0.530518	0.746226	0.160607	-0.644801	-0.0397887	9.50879	2.84546	1.1986	0.00640661	0.00463811	-0.0252015	-0.86084	-0.380371	-0.52417	0.755969	0.114667	-0.64075	0.0692953	9.75438	-0.160783	5.3069	0.0078903	0.00876446	-0.0126666	-0.953857	-0.206543	-0.603271	0.593267	0.0241196	-0.803655	0.0398847	9.2217	-0.395166	-2.90178	0.0277435	0.00773147	-0.0179556	-1.05518	-0.0263672	-0.0109863	0.858751	-0.159493	-0.457722	-0.166133	8.87752	-1.21261	5.59802	0.00780397	0.00672168	-0.0199255	-0.780273	0.220459	-0.731934	0.0812876	0.957885	0.273203	-0.034756	-0.895547	3.33342	-8.57878	0.00963827	0.00217529	-0.0251583	-0.263672	-0.362305	1.00928	0.959225	0.0900294	-0.254332	0.0842439	5.30328	1.44648	8.87052	-0.0036339	0.00578942	0.00417248	-0.18335	-0.223877	-1.06592	0.0269015	0.0196589	0.997342	0.0647927	-0.477036	1.47725	-9.63249	0.00588503	0.00435707	-0.00834979	-0.428467	-0.116211	1.06812	
18	-0.878155	-0.0125396	0.478211	0.00046555	8.82281	0.214746	5.69792	0.0211072	-0.0568856	-0.000872348	-0.634521	-0.0310059	-0.801758	0.61755	-0.0571366	-0.784453	0.000237765	9.47667	-0.747404	-2.39914	0.00660667	0.00701658	-0.020317	-0.926758	-0.0170898	-0.0529785	0.768765	-0.149729	-0.621669	-0.0104665	9.50871	-2.0204	1.83746	0.0402559	-0.00165409	-0.00208987	-0.984131	0.221191	-0.478027	0.743923	-0.17323	-0.586357	-0.26973	9.42894	0.561129	2.49558	0.0245804	0.0136695	-0.000696123	-0.872559	0.243652	-0.534912	0.746199	0.160983	-0.644737	-0.039817	9.42444	2.96769	1.21102	-0.000600158	0.0123651	-0.0256103	-0.860596	-0.384766	-0.52417	0.755828	0.114899	-0.640826	0.0697421	9.75595	-0.236248	5.23798	0.0161769	0.00971908	-0.00541725	-0.953857	-0.20874	-0.605469	0.593237	0.0241765	-0.80367	0.0399973	9.21328	-0.322224	-2.84591	0.0295394	0.00971033	-0.0159916	-1.05298	-0.0263672	-0.0131836	0.858754	-0.159422	-0.457741	-0.16613	8.8531	-1.26756	5.60273	0.00701903	0.0178544	-0.0161913	-0.778076	0.222656	-0.727295	0.0807818	0.957577	0.274437	-0.0347033	-0.872236	3.32568	-8.57997	0.001142	0.00539606	-0.0227852	-0.266357	-0.355469	1.00928	0.959215	0.0898236	-0.254436	0.084266	5.2966	1.42765	8.89083	-0.00588646	0.00660826	0.00570871	-0.180664	-0.234863	-1.06323	0.0269154	0.019669	0.997342	0.064791	-0.461526	1.48077	-9.65563	0.00400581	0.00496219	-0.0074562	-0.424072	-0.11377	1.07275	
19	-0.877515	-0.0131481	0.479368	0.000277765	8.78212	0.197339	5.62894	0.0269853	-0.0589103	-0.00672224	-0.636475	-0.0332031	-0.801758	0.617393	-0.0569722	-0.784589	0.000512723	9.52177	-0.669884	-2.32523	-0.00513956	0.00695851	-0.0180199	-0.92627	-0.0256348	-0.0527344	0.768743	-0.150077	-0.621609	-0.0106503	9.57774	-2.22741	1.91814	0.00404879	0.00814201	-0.00116979	-0.981934	0.218994	-0.480225	0.744041	-0.173178	-0.586264	-0.269642	9.54425	0.608747	2.54718	0.00618868	0.0128324	0.00294916	-0.870117	0.239258	-0.534912	0.746161	0.161125	-0.644747	-0.0397975	9.43422	2.90678	1.14026	0.0154689	0.0132192	-0.0174007	-0.854004	-0.386719	-0.52417	0.755851	0.114918	-0.64079	0.0697914	9.7289	-0.227841	5.31937	0.00460893	0.014158	-0.0196459	-0.947266	-0.206543	-0.605469	0.593326	0.0242685	-0.803606	0.0399099	9.23963	-0.343931	-2.94038	0.0137138	0.0232621	-0.0224321	-1.05713	-0.0285645	-0.0131836	0.858704	-0.159395	-0.457856	-0.1661	8.84364	-1.19411	5.60904	0.00529345	0.0061044	-0.0157495	-0.784668	0.220459	-0.734375	0.0807739	0.957529	0.274615	-0.0346438	-0.883683	3.325	-8.56869	0.0178943	0.00600922	-0.0231325	-0.268555	-0.353271	1.00903	0.959195	0.0896007	-0.254574	0.084312	5.28874	1.42726	8.85851	-0.00321593	0.00716195	0.00604221	-0.180908	-0.228271	-1.06348	0.0269183	0.0195775	0.99735	0.0646916	-0.476395	1.46487	-9.66159	0.00677421	0.00397286	-0.00765693	-0.430908	-0.114014	1.07275	
20	-0.876865	-0.0139418	0.480534	1.49565e-05	8.85021	0.238613	5.59707	0.0351921	-0.0535538	-0.00783895	-0.640869	-0.0375977	-0.806152	0.617442	-0.057174	-0.784536	0.000446331	9.47171	-0.680722	-2.33793	-0.0171827	0.0172471	-0.0171605	-0.928711	-0.0214844	-0.0576172	0.768943	-0.149707	-0.621454	-0.010413	9.45147	-2.13341	1.82843	0.0201243	0.0107398	-0.00172615	-0.984131	0.217041	-0.480225	0.744085	-0.173281	-0.586134	-0.269736	9.40266	0.538171	2.39955	0.00207424	0.00862967	5.21267e-06	-0.865479	0.239258	-0.534912	0.746206	0.161064	-0.64471	-0.0397912	9.34593	2.83444	1.08397	-0.00619115	0.00834844	-0.0147911	-0.851807	-0.384521	-0.521973	0.75597	0.114857	-0.640652	0.0698667	9.62167	-0.242203	5.2461	-0.00264112	0.0216506	-0.0165431	-0.958008	-0.210693	-0.603271	0.593587	0.0246286	-0.803409	0.0397835	9.13491	-0.306934	-2.82138	0.0142995	0.0184314	-0.0239863	-1.05298	-0.0263672	-0.0090332	0.858655	-0.15949	-0.457917	-0.166092	8.87498	-1.22137	5.58227	-0.00106935	0.00739656	-0.0138662	-0.780029	0.214111	-0.731934	0.0807478	0.957475	0.274819	-0.034588	-0.889562	3.33413	-8.55802	0.0115789	0.00665736	-0.0224559	-0.266113	-0.35791	1.01367	0.959175	0.0896615	-0.254604	0.0843852	5.3142	1.44638	8.87224	0.00626862	0.0111738	0.00521201	-0.178711	-0.228271	-1.06567	0.026923	0.0195784	0.997347	0.0647424	-0.470518	1.46527	-9.62569	0.000307176	0.00688734	-0.0082451	-0.419434	-0.118164	1.07739	
21	-0.876396	-0.0145402	0.481372	0.000190931	8.88778	0.291733	5.56414	0.0114997	-0.0393279	-0.0218685	-0.640869	-0.0332031	-0.803955	0.617635	-0.0573689	-0.784369	0.000336323	9.56693	-0.728606	-2.26252	-0.0169878	0.0262501	-0.0156497	-0.928955	-0.0168457	-0.0507812	0.76889	-0.149727	-0.621516	-0.0103547	9.47949	-2.1715	1.83519	0.00439135	-0.00241553	0.0021918	-0.984131	0.219238	-0.478027	0.744137	-0.172973	-0.586281	-0.269473	9.48497	0.561254	2.57729	0.0177289	0.00199424	0.00149415	-0.872314	0.239258	-0.534912	0.746229	0.160669	-0.644762	-0.0401324	9.42817	2.91882	1.20245	-0.031123	-0.00577556	-0.0130634	-0.85791	-0.393555	-0.52417	0.756118	0.114607	-0.640536	0.0697396	9.73361	-0.210235	5.31942	-0.0128542	0.0199912	-0.0173135	-0.953857	-0.204346	-0.609863	0.593486	0.0246843	-0.803474	0.0399184	9.20707	-0.303607	-2.81149	0.0243327	0.0134348	-0.0172541	-1.05273	-0.032959	-0.0131836	0.8588	-0.159271	-0.457668	-0.166238	8.83493	-1.24021	5.61214	0.00672755	0.0214899	-0.0144573	-0.775879	0.222656	-0.729736	0.0806852	0.957372	0.275208	-0.0344891	-0.877987	3.32512	-8.56288	0.00756335	0.00729188	-0.023884	-0.263916	-0.355469	1.00684	0.959254	0.0895041	-0.254351	0.0844168	5.27153	1.42777	8.84451	-0.00164935	0.0254816	0.0045478	-0.183105	-0.228271	-1.06128	0.0268835	0.0195777	0.997348	0.0647378	-0.469889	1.47424	-9.64225	0.00412807	0.00774699	-0.00760498	-0.424072	-0.11377	1.06812	
22	-0.876236	-0.0148668	0.481652	0.000471294	8.90073	0.300532	5.61328	0.00566335	-0.0083296	-0.0131392	-0.636475	-0.0332031	-0.799561	0.617749	-0.0576183	-0.784262	0.000181195	9.59927	-0.810021	-2.33212	-0.0132525	0.0176971	-0.0139735	-0.926514	-0.0212402	-0.0551758	0.768785	-0.149529	-0.621694	-0.0103312	9.50057	-2.04546	1.8656	-0.00118409	0.000213504	-0.0082166	-0.986328	0.221436	-0.475586	0.744151	-0.172865	-0.586303	-0.269457	9.44844	0.526845	2.49999	0.00770216	0.00356877	0.00122408	-0.872314	0.241455	-0.537109	0.746268	0.160963	-0.644648	-0.0400466	9.54031	2.96227	1.18791	0.00494761	0.0170093	-0.0187648	-0.858154	-0.38916	-0.521973	0.756164	0.114548	-0.640468	0.0699614	9.71751	-0.167166	5.29841	0.00379467	0.0144676	-0.0132341	-0.956299	-0.202148	-0.609863	0.593385	0.024704	-0.803553	0.0398384	9.23024	-0.30481	-2.84271	0.0148176	0.00173208	-0.0217565	-1.05298	-0.0263672	-0.0090332	0.858855	-0.159323	-0.457588	-0.166125	8.85376	-1.22183	5.5702	0.00453686	0.0157509	-0.0122162	-0.780518	0.224854	-0.731934	0.0807833	0.957314	0.275388	-0.0344398	-0.880994	3.32749	-8.55332	0.0124294	0.00393925	-0.0252915	-0.263916	-0.355469	1.00928	0.959277	0.0896105	-0.2542	0.084497	5.29453	1.43369	8.88641	0.0101546	0.01596	0.00585538	-0.178711	-0.228271	-1.06567	0.0268104	0.019476	0.997347	0.0648184	-0.457597	1.46841	-9.65366	-0.00141755	0.00645785	-0.00789756	-0.424316	-0.107178	1.07495	
23	-0.876173	-0.0146927	0.481773	0.000330414	8.90176	0.330625	5.60388	-0.00770764	-0.0053668	0.0124581	-0.641113	-0.0334473	-0.79541	0.617866	-0.0577008	-0.784163	0.000127955	9.63219	-0.727084	-2.27107	-0.0150255	0.0256388	-0.0159856	-0.928955	-0.0170898	-0.0554199	0.768809	-0.14953	-0.621664	-0.0103634	9.52585	-2.20782	1.82625	0.00249967	0.00842347	-0.00334599	-0.988525	0.221436	-0.475586	0.744183	-0.172882	-0.586266	-0.269437	9.55689	0.528249	2.52464	0.00587104	0.00899373	0.00251819	-0.87207	0.237061	-0.534912	0.746334	0.160633	-0.644641	-0.0402662	9.47659	2.88912	1.12599	-0.0330832	0.00669446	-0.010607	-0.854004	-0.382324	-0.52417	0.75617	0.114708	-0.640446	0.069842	9.79332	-0.194916	5.29341	-0.00327843	0.0127598	-0.0230273	-0.953857	-0.206543	-0.605469	0.59315	0.0252106	-0.80371	0.0398522	9.23327	-0.309161	-2.88148	0.0258042	0.00104883	-0.0207022	-1.05298	-0.0285645	-0.0153809	0.858876	-0.159303	-0.457571	-0.166082	8.85322	-1.26625	5.58385	0.008469	0.0138267	-0.0172137	-0.780273	0.220459	-0.729492	0.0807833	0.957314	0.275388	-0.0344398	-0.880994	3.32749	-8.55332	0.0124294	0.00393925	-0.0252915	-0.263916	-0.355469	1.00928	0.959344	0.0893956	-0.253998	0.0845697	5.33083	1.44328	8.91673	-0.00429923	0.016967	0.0033424	-0.182861	-0.232666	-1.06104	0.0268974	0.0194714	0.99734	0.0648816	-0.464297	1.49269	-9.65422	0.00520718	0.00251503	-0.00784957	-0.421631	-0.118164	1.07495	
24	-0.876319	-0.0139652	0.481529	0.000554295	8.8165	0.220801	5.56141	-0.0324138	0.00937721	0.00210831	-0.645508	-0.0334473	-0.797607	0.618143	-0.0577486	-0.783942	6.19731e-05	9.42437	-0.718554	-2.37973	0.00269484	0.0222321	-0.0247694	-0.922119	-0.0212402	-0.0576172	0.768794	-0.149726	-0.621632	-0.0105853	9.47307	-2.10641	1.77486	0.00146743	0.00459939	0.00082703	-0.988525	0.221436	-0.478027	0.744077	-0.172984	-0.586284	-0.269625	9.41792	0.593077	2.45463	0.00209772	-0.00278264	0.000496363	-0.869873	0.234863	-0.528076	0.746247	0.16071	-0.644713	-0.040406	9.43687	2.86124	1.21085	0.00199385	0.000193837	-0.00965392	-0.860596	-0.382568	-0.52417	0.756078	0.11489	-0.640512	0.0699417	9.7	-0.197737	5.36847	0.0116669	0.00476384	-0.0226695	-0.960449	-0.202148	-0.607666	0.593141	0.0255199	-0.803708	0.0398139	9.16661	-0.353266	-2.8876	0.0160403	0.00515144	-0.0197574	-1.05713	-0.0307617	-0.0109863	0.858911	-0.159226	-0.457506	-0.166155	8.86605	-1.26456	5.6034	0.00569301	0.0184847	-0.0198946	-0.778076	0.222656	-0.734375	0.0807833	0.957314	0.275388	-0.0344398	-0.880994	3.32749	-8.55332	0.0124294	0.00393925	-0.0252915	-0.263916	-0.355469	1.00928	0.959384	0.089273	-0.253906	0.084529	5.26757	1.38984	8.85961	-0.00283059	0.017301	0.0021318	-0.178711	-0.226074	-1.06128	0.0269563	0.0194894	0.997339	0.0648756	-0.471809	1.46964	-9.63141	0.00301346	0.00255523	-0.00799693	-0.42627	-0.115967	1.07495	
25	-0.876686	-0.0135212	0.480872	0.00102972	8.8541	0.183414	5.60778	-0.019295	0.0377354	-0.0120217	-0.638916	-0.0332031	-0.797363	0.618223	-0.0574504	-0.783901	-9.50455e-05	9.49433	-0.705216	-2.28548	-0.00145152	0.0103816	-0.022642	-0.928711	-0.0212402	-0.0505371	0.768788	-0.149588	-0.621674	-0.0104886	9.49586	-2.10245	1.79117	0.0170275	0.00102645	-0.00317716	-0.990479	0.219238	-0.480225	0.744037	-0.172914	-0.586312	-0.269716	9.56138	0.504629	2.49837	0.00881419	0.00913387	-0.00730496	-0.86792	0.241455	-0.537109	0.746264	0.160742	-0.644682	-0.0404497	9.35058	3.0067	1.10737	-0.00108164	0.0091788	-0.0195481	-0.855957	-0.388916	-0.528809	0.756078	0.11489	-0.640512	0.0699417	9.7	-0.197737	5.36847	0.0116669	0.00476384	-0.0226695	-0.960449	-0.202148	-0.607666	0.592957	0.0257138	-0.803833	0.0399107	9.2098	-0.361107	-2.80216	0.0218087	0.00123067	-0.0202012	-1.05078	-0.0263672	-0.0175781	0.85893	-0.159168	-0.457486	-0.166167	8.86017	-1.20277	5.62271	0.00869777	0.0174226	-0.0190007	-0.778076	0.220459	-0.736572	0.0803701	0.95698	0.276669	-0.0344164	-0.881419	3.32484	-8.59014	0.00775683	0.00439865	-0.0247958	-0.268555	-0.355469	1.00928	0.959358	0.0893838	-0.253976	0.0844943	5.25695	1.33566	8.9131	0.0106099	0.00424901	-0.00122734	-0.180908	-0.228271	-1.06567	0.0269877	0.0195184	0.997335	0.0649133	-0.46351	1.47695	-9.67489	0.000764531	0.00382911	-0.00594236	-0.424072	-0.115967	1.07715	
26	-0.876916	-0.0134021	0.480455	0.00109718	8.72905	0.196881	5.58805	-0.0109128	0.0351133	-0.00143659	-0.634277	-0.0354004	-0.797363	0.618244	-0.0573412	-0.783892	4.71775e-05	9.48317	-0.78745	-2.40436	0.0080283	0.0127927	-0.0210594	-0.928711	-0.0214844	-0.0576172	0.768658	-0.14988	-0.621762	-0.0106605	9.47563	-2.16993	1.85999	0.0201106	0.00550211	0.00298281	-0.981934	0.218994	-0.475586	0.744037	-0.172914	-0.586312	-0.269716	9.56138	0.504629	2.49837	0.00881419	0.00913387	-0.00730496	-0.86792	0.241455	-0.537109	0.746244	0.160268	-0.644804	-0.0407593	9.42951	2.93515	1.21431	-0.0316755	-0.00190431	-0.0124417	-0.858154	-0.386963	-0.519531	0.756367	0.114643	-0.640223	0.0698656	9.73524	-0.154621	5.27256	-0.00729887	0.0195005	-0.0137545	-0.953857	-0.20874	-0.605469	0.592872	0.0257611	-0.80389	0.040007	9.15294	-0.321876	-2.82212	0.0287452	0.00350867	-0.0162928	-1.05493	-0.0307617	-0.00878906	0.858985	-0.159192	-0.457374	-0.166164	8.84626	-1.2372	5.61267	0.00156085	0.0212623	-0.0150449	-0.773682	0.218262	-0.729492	0.0804134	0.956955	0.276748	-0.0343617	-0.906063	3.32281	-8.58287	0.00906142	0.00679353	-0.0222127	-0.268555	-0.355469	1.00684	0.959358	0.0894412	-0.253952	0.0845021	5.27838	1.50011	8.83518	0.000750647	0.0147449	0.00138689	-0.180908	-0.230469	-1.06567	0.0270017	0.0195293	0.997328	0.0650072	-0.475986	1.46707	-9.64394	-0.00377346	0.00557739	-0.00712988	-0.424316	-0.111572	1.07495	
27	-0.87703	-0.013347	0.480249	0.00101024	8.7533	0.190668	5.64945	-0.000662897	0.0158763	0.00723169	-0.638916	-0.03125	-0.799561	0.618094	-0.0576163	-0.78399	-6.68297e-05	9.46541	-0.698663	-2.32905	-0.0192746	0.00321827	-0.0135362	-0.926758	-0.0170898	-0.0529785	0.768666	-0.150058	-0.621707	-0.0107691	9.54188	-2.08493	1.82481	-0.00634881	0.00490012	0.000565926	-0.979736	0.218994	-0.478027	0.74402	-0.172862	-0.586289	-0.269849	9.49711	0.546631	2.50435	-0.00331397	0.00499441	-0.000811957	-0.87207	0.237061	-0.532715	0.74615	0.160695	-0.644821	-0.0405462	9.41579	2.92773	1.19345	0.0411204	0.0104288	-0.0208355	-0.858154	-0.386963	-0.52417	0.756407	0.114674	-0.640151	0.0700282	9.70231	-0.196566	5.33875	0.00884914	0.0135068	-0.0134927	-0.956055	-0.206543	-0.605469	0.592641	0.0257081	-0.804059	0.0400638	9.26575	-0.262822	-2.97742	0.0135027	0.00835552	-0.0182238	-1.05713	-0.0307617	-0.0109863	0.858992	-0.159168	-0.457351	-0.166217	8.8527	-1.21508	5.5738	0.00525568	0.0157306	-0.01825	-0.782471	0.220459	-0.729492	0.0804134	0.956955	0.276748	-0.0343617	-0.906063	3.32281	-8.58287	0.00906142	0.00679353	-0.0222127	-0.268555	-0.355469	1.00684	0.959421	0.0892305	-0.253809	0.0844454	5.27032	1.38928	8.85385	-0.00274079	0.0159573	0.00338853	-0.180908	-0.226074	-1.06128	0.0269126	0.0194842	0.997336	0.0649345	-0.47047	1.45926	-9.63645	0.00365063	0.00562991	-0.00628979	-0.421631	-0.118164	1.07495	
28	-0.877223	-0.0133702	0.479896	0.000965763	8.73956	0.207019	5.64563	-0.004059	0.00181206	-0.00162279	-0.629883	-0.0354004	-0.799561	0.617635	-0.0574498	-0.784364	0.000199109	9.6643	-0.730523	-2.31589	0.00077428	-0.00235109	-0.0204377	-0.926514	-0.019043	-0.0554199	0.76878	-0.149681	-0.621662	-0.0104655	9.51842	-1.99813	1.80122	0.0393711	0.00152117	-0.0141976	-0.981934	0.218994	-0.475586	0.744143	-0.17282	-0.586142	-0.269857	9.42994	0.628955	2.48773	0.0182534	0.0136497	0.00321594	-0.874268	0.237061	-0.534912	0.746067	0.160636	-0.644943	-0.040355	9.54748	2.82817	1.18066	0.0166412	-0.000895607	-0.00543584	-0.858154	-0.38916	-0.519531	0.756488	0.11466	-0.640078	0.069848	9.79326	-0.204491	5.34884	-0.0035089	0.0173042	-0.0280501	-0.953857	-0.206543	-0.616211	0.592758	0.025814	-0.803961	0.0402277	9.25041	-0.360735	-2.81576	0.0351395	0.024344	-0.0172259	-1.05933	-0.0285645	-0.0109863	0.858974	-0.159208	-0.457402	-0.16613	8.82669	-1.21112	5.60216	0.00658059	0.0110111	-0.0108089	-0.782471	0.222656	-0.729736	0.0804134	0.956955	0.276748	-0.0343617	-0.906063	3.32281	-8.58287	0.00906142	0.00679353	-0.0222127	-0.268555	-0.355469	1.00684	0.9594	0.0891565	-0.253892	0.0845095	5.314	1.40897	8.8907	0.00424164	0.00938798	0.00593596	-0.180908	-0.228271	-1.06567	0.0269475	0.019456	0.997335	0.0649471	-0.478473	1.46591	-9.6415	0.00496912	0.00529288	-0.00933347	-0.42627	-0.11377	1.07275	
29	-0.876975	-0.0135735	0.480342	0.000921409	8.82686	0.164934	5.60889	0.0146014	-0.0275173	-0.00068869	-0.638916	-0.03125	-0.79541	0.617592	-0.0568622	-0.78444	0.000534884	9.41725	-0.692931	-2.34126	0.0243907	0.00309017	-0.0340937	-0.930908	-0.019043	-0.0529785	0.768939	-0.150134	-0.621348	-0.010961	9.49482	-2.44698	1.78956	-0.0251015	0.0256923	0.00364068	-0.990723	0.221436	-0.473389	0.74437	-0.17301	-0.585833	-0.269779	9.56882	0.51427	2.45297	-0.0103663	0.0230021	0.00800162	-0.874756	0.243652	-0.530518	0.746069	0.161136	-0.644836	-0.0400306	9.38394	3.04966	1.22631	-0.0161221	0.0119368	-0.0252075	-0.858154	-0.386963	-0.52417	0.756447	0.115083	-0.640019	0.070135	9.66233	-0.217087	5.283	0.00747495	0.0113717	-0.0176048	-0.953857	-0.206543	-0.611816	0.593025	0.0263176	-0.80375	0.0401905	9.10735	-0.370138	-2.88637	0.0271507	0.0169059	-0.0223532	-1.05518	-0.0263672	-0.0153809	0.858841	-0.159411	-0.457604	-0.166066	8.84553	-1.26571	5.62273	0.000249697	0.00165374	-0.0110968	-0.780273	0.222656	-0.734375	0.0797743	0.95657	0.27826	-0.0343824	-0.886197	3.32244	-8.58501	0.00940948	0.00407752	-0.0238485	-0.266357	-0.355469	1.01587	0.959301	0.0893321	-0.254156	0.084648	5.27982	1.43943	8.90246	0.0078714	-0.00586298	0.0088756	-0.185547	-0.226074	-1.06567	0.0269933	0.0194671	0.997334	0.0649407	-0.46378	1.46845	-9.64094	0.00370944	0.0043947	-0.00849145	-0.42627	-0.11377	1.07715	
30	-0.877075	-0.0143195	0.48014	0.000386837	8.81767	0.219014	5.59007	0.0437768	0.0174164	0.00362776	-0.636475	-0.0354004	-0.799561	0.617206	-0.0562964	-0.784784	0.00100193	9.44677	-0.706805	-2.30703	0.0222322	-0.00905027	-0.0244095	-0.926514	-0.0212402	-0.0529785	0.769277	-0.149139	-0.621182	-0.0101953	9.48518	-2.00483	1.83232	0.0572945	0.0122347	0.00596245	-0.977539	0.2146	-0.482422	0.744717	-0.172774	-0.585649	-0.269372	9.51996	0.650277	2.47979	0.0159232	0.0162468	0.0106399	-0.867676	0.239258	-0.537109	0.746017	0.161559	-0.644821	-0.0395379	9.3712	2.91425	1.06256	0.0695215	-0.000841068	-0.00490039	-0.854004	-0.382568	-0.519531	0.756469	0.115307	-0.639942	0.0702389	9.75418	-0.216953	5.23685	-0.00133222	0.0155959	-0.0207334	-0.956299	-0.202148	-0.614258	0.592899	0.026392	-0.803833	0.0403315	9.15203	-0.356403	-2.86714	0.0230769	-0.00466067	-0.0177612	-1.05713	-0.032959	-0.0131836	0.858874	-0.15917	-0.457584	-0.166186	8.90852	-1.2415	5.57564	0.00875183	0.0109246	-0.0164556	-0.776123	0.222656	-0.736572	0.0795524	0.956447	0.278756	-0.0342766	-0.88741	3.33046	-8.60375	0.00783963	0.00970634	-0.0224849	-0.270752	-0.35791	1.00464	0.959282	0.0889075	-0.254365	0.0846821	5.36229	1.39449	8.8774	-0.0141024	0.00812416	0.00945236	-0.183105	-0.230469	-1.06787	0.0270292	0.0194484	0.997341	0.0648234	-0.475077	1.46003	-9.64256	0.00779943	0.00570073	-0.00960486	-0.424316	-0.111572	1.07495	
31	-0.877216	-0.0150016	0.479861	-8.12677e-05	8.75591	0.329134	5.67014	0.026116	0.0051549	0.000358714	-0.634277	-0.0354004	-0.799561	0.61702	-0.0562175	-0.784936	0.00116675	9.56506	-0.679375	-2.31424	0.00545751	-0.00673766	-0.0166556	-0.930908	-0.019043	-0.0505371	0.769199	-0.149442	-0.621202	-0.010424	9.52106	-2.1659	1.94073	-0.0277721	0.00174974	-0.000967298	-0.97998	0.223389	-0.471191	0.744973	-0.172644	-0.585444	-0.269193	9.51269	0.556557	2.5911	0.00844668	0.0162489	0.00716305	-0.86792	0.243652	-0.532715	0.745969	0.162022	-0.644776	-0.0392895	9.41602	3.07803	1.21703	0.0404296	0.0116408	-0.0246604	-0.854004	-0.382324	-0.531006	0.756551	0.115232	-0.639815	0.0706337	9.66946	-0.187722	5.3459	0.00151798	0.0191755	-0.00614011	-0.95166	-0.20874	-0.605469	0.592376	0.0264376	-0.804217	0.0403358	9.23061	-0.310175	-2.92613	0.0160788	-0.0217517	-0.0173675	-1.05518	-0.0285645	-0.00683594	0.85897	-0.159152	-0.457432	-0.166127	8.78976	-1.23093	5.62959	0.00596855	0.0210396	-0.0127735	-0.775879	0.222656	-0.731934	0.0796409	0.956428	0.278807	-0.0341992	-0.885299	3.30439	-8.588	0.00583657	0.00738973	-0.0218632	-0.266357	-0.353271	1.00903	0.959297	0.0888074	-0.254333	0.0847174	5.24163	1.45859	8.8547	0.00194648	0.0162616	0.00363567	-0.180908	-0.226074	-1.05884	0.0269929	0.0194632	0.997342	0.0648179	-0.458074	1.47499	-9.62201	0.00209807	0.00806241	-0.00723374	-0.426514	-0.111572	1.07031	
32	-0.877071	-0.0152463	0.480119	0.000108121	8.82179	0.295557	5.64996	-0.000318532	-0.019929	-0.017756	-0.631836	-0.0397949	-0.799561	0.616865	-0.0566436	-0.785027	0.00124252	9.59002	-0.659068	-2.36593	-0.0403409	0.0180749	0.00306533	-0.928711	-0.0212402	-0.0551758	0.769602	-0.148836	-0.620855	-0.00997602	9.50029	-1.99776	1.80789	0.0356799	0.00621421	-0.0140626	-0.984131	0.221436	-0.482422	0.745174	-0.172667	-0.585275	-0.268988	9.45364	0.624338	2.5329	0.00468389	0.0136924	0.0119007	-0.86792	0.241455	-0.539307	0.746456	0.161383	-0.644306	-0.0403698	9.38591	3.03423	1.05201	-0.0467152	0.0125942	-0.0340925	-0.85376	-0.388916	-0.526367	0.756782	0.115347	-0.639524	0.0706073	9.7765	-0.061812	5.18305	-0.0158005	0.0287739	-0.0258765	-0.958252	-0.202148	-0.607666	0.592068	0.026662	-0.804441	0.0402511	9.21017	-0.296173	-2.88116	0.0264634	0.00582191	-0.0292397	-1.04858	-0.0307617	-0.00683594	0.859066	-0.158877	-0.457392	-0.166002	8.87395	-1.3419	5.58704	0.0245446	0.0230372	-0.0150686	-0.780029	0.218262	-0.734131	0.0792847	0.956335	0.279232	-0.0341657	-0.877107	3.321	-8.57904	0.0193866	0.00814018	-0.0259524	-0.270996	-0.353271	1.00244	0.95939	0.0882947	-0.254135	0.0847939	5.39139	1.4481	8.90796	-0.019944	0.024769	0.012012	-0.181152	-0.22168	-1.06372	0.0269508	0.0194684	0.997336	0.0649323	-0.465893	1.47023	-9.64703	-0.000825543	0.00876172	-0.00755789	-0.426514	-0.111572	1.06812	
33	-0.87707	-0.015213	0.480122	0.000631058	8.83511	0.277831	5.57695	-0.0152032	0.00496654	-0.0159433	-0.638428	-0.0419922	-0.801758	0.617071	-0.0570335	-0.784837	0.00118102	9.40176	-0.677892	-2.3342	-0.0301757	0.0355775	0.00322458	-0.926514	-0.0212402	-0.0529785	0.769627	-0.149012	-0.62078	-0.0100871	9.50996	-2.2126	1.9937	-0.0122261	0.011676	0.000913209	-0.979736	0.2146	-0.477783	0.745231	-0.172569	-0.585219	-0.269015	9.41607	0.399296	2.43648	0.00647745	0.00799898	-0.00635533	-0.865723	0.241455	-0.539307	0.746634	0.161325	-0.644083	-0.0408504	9.50736	2.93276	1.27242	-0.0322146	0.0224987	-0.0425791	-0.855957	-0.388916	-0.52417	0.757004	0.11543	-0.639264	0.0704396	9.64641	-0.292876	5.29507	-0.0188831	0.0184812	-0.0329123	-0.956055	-0.206543	-0.607666	0.591367	0.0265504	-0.804976	0.039916	9.09082	-0.314222	-2.8246	0.0165522	-0.0415984	-0.0170516	-1.05713	-0.0307617	-0.00683594	0.859187	-0.15854	-0.457303	-0.165939	8.90978	-1.19126	5.60181	0.0306727	0.0288927	-0.0217789	-0.780029	0.218262	-0.724854	0.0785927	0.956242	0.279759	-0.0340438	-0.886709	3.31727	-8.5905	0.0309987	0.0154579	-0.0305457	-0.27124	-0.348633	1.00244	0.95957	0.08735	-0.253762	0.0848528	5.28295	1.362	8.87885	-0.0354373	0.0321418	0.0119798	-0.178711	-0.226074	-1.06812	0.0268279	0.0194994	0.997355	0.0646717	-0.464697	1.47092	-9.63217	0.0195202	0.0120554	-0.00479493	-0.428711	-0.114014	1.07031	
34	-0.877187	-0.0151797	0.479909	0.000910094	8.79113	0.245919	5.61484	-0.0136248	0.016075	-0.0193081	-0.638672	-0.0375977	-0.795166	0.617115	-0.0574175	-0.784775	0.000787571	9.51642	-0.736204	-2.23118	-0.028899	0.0164387	-0.0199037	-0.928711	-0.019043	-0.0505371	0.769616	-0.149071	-0.620783	-0.0099017	9.43699	-2.35618	1.93408	0.00870619	0.00195047	0.012749	-0.979736	0.216797	-0.475586	0.745239	-0.172467	-0.585296	-0.26889	9.38808	0.536767	2.54462	0.017687	0.0012372	0.00182239	-0.865723	0.241455	-0.539307	0.746704	0.161234	-0.644018	-0.0409577	9.2744	2.95999	1.20038	0.0149101	0.00640877	-0.014738	-0.85376	-0.388916	-0.52417	0.757132	0.115355	-0.639133	0.070375	9.64369	-0.274776	5.38832	-0.01097	0.0266878	-0.0204497	-0.954102	-0.202148	-0.616211	0.590928	0.0265012	-0.805298	0.0399717	9.22446	-0.321442	-2.9752	0.0207946	-0.0309762	-0.00989178	-1.05713	-0.0285645	-0.0109863	0.859328	-0.158165	-0.457121	-0.166071	8.79749	-1.15592	5.61556	0.01052	0.0244094	-0.0258753	-0.778076	0.218262	-0.729492	0.0785927	0.956242	0.279759	-0.0340438	-0.886709	3.31727	-8.5905	0.0309987	0.0154579	-0.0305457	-0.27124	-0.348633	1.00244	0.95957	0.08735	-0.253762	0.0848528	5.28295	1.362	8.87885	-0.0354373	0.0321418	0.0119798	-0.178711	-0.226074	-1.06812	0.0267632	0.0195274	0.997364	0.0645621	-0.441814	1.47417	-9.6433	0.0126736	0.011046	-0.00598915	-0.42627	-0.115967	1.07495	
35	-0.877455	-0.0153431	0.479412	0.00128184	8.77791	0.287112	5.67942	0.00357361	0.0178242	-0.0135263	-0.634033	-0.0397949	-0.803711	0.617183	-0.0578065	-0.784693	0.00064383	9.59975	-0.780488	-2.29694	-0.0219343	0.0157159	-0.00603171	-0.93335	-0.0126953	-0.0507812	0.769762	-0.149223	-0.62057	-0.00963911	9.54122	-2.16124	1.85101	-0.0275884	0.000349175	-0.0011936	-0.984131	0.221191	-0.480225	0.745236	-0.172538	-0.585225	-0.269007	9.47603	0.595056	2.52539	-0.00589154	0.00750141	-0.00167862	-0.865723	0.241455	-0.534912	0.746857	0.161214	-0.643856	-0.0407919	9.47787	2.96157	1.32116	-0.00995659	0.031493	-0.010384	-0.85376	-0.388916	-0.528809	0.757405	0.115165	-0.638833	0.0704732	9.71872	-0.21691	5.33281	-0.00666326	0.0212426	-0.0145652	-0.95166	-0.210693	-0.611816	0.590928	0.0265012	-0.805298	0.0399717	9.22446	-0.321442	-2.9752	0.0207946	-0.0309762	-0.00989178	-1.05713	-0.0285645	-0.0109863	0.859426	-0.158261	-0.456953	-0.165935	8.82869	-1.22347	5.57584	0.00350672	0.0219931	-0.00364707	-0.780029	0.218506	-0.736572	0.0781586	0.95601	0.280713	-0.0337177	-0.879315	3.29303	-8.59064	0.00879062	0.01073	-0.0234524	-0.268311	-0.360107	1.00928	0.959728	0.0874421	-0.253085	0.0849899	5.26965	1.45779	8.87461	0.0197656	0.0258919	0.00523186	-0.18335	-0.226074	-1.06812	0.0267245	0.0195051	0.997357	0.0646865	-0.478522	1.48218	-9.64277	-0.00060401	0.00780158	-0.00924338	-0.42627	-0.11377	1.07495	
36	-0.877608	-0.0152374	0.479136	0.00102596	8.84676	0.298296	5.72823	-0.000726053	0.00771649	0.0167759	-0.634277	-0.0375977	-0.799561	0.617442	-0.0581919	-0.784461	0.000570393	9.57253	-0.770808	-2.35588	-0.00267729	0.0204651	-0.0188648	-0.928711	-0.019043	-0.0483398	0.769949	-0.149313	-0.620317	-0.00954159	9.60579	-2.33394	1.82013	0.0124057	0.0150313	0.00543351	-0.984131	0.223389	-0.484863	0.745331	-0.172712	-0.58508	-0.268949	9.63033	0.572849	2.53766	0.0119235	0.0132005	0.0081928	-0.867676	0.239258	-0.534912	0.746972	0.160875	-0.643799	-0.0409286	9.52506	2.7912	1.1054	0.00616472	0.0018171	-0.00677078	-0.858154	-0.388916	-0.526367	0.757573	0.115293	-0.638618	0.0704096	9.79195	-0.226217	5.3231	-0.00794711	0.0200812	-0.0285971	-0.958008	-0.20874	-0.611816	0.58968	0.0277403	-0.806132	0.0407427	9.33712	-0.270737	-3.00066	0.020351	-0.0509704	-0.0175519	-1.05298	-0.0285645	0.00170898	0.859628	-0.157935	-0.45665	-0.166033	8.85936	-1.26697	5.61381	0.0111226	0.0241832	-0.0143285	-0.780273	0.220459	-0.729492	0.0782913	0.955893	0.281085	-0.0336349	-0.88086	3.30568	-8.61787	0.00109287	0.00449165	-0.0247973	-0.270752	-0.35791	1.01367	0.95979	0.0873007	-0.252895	0.0850014	5.27138	1.39307	8.91668	-0.00878395	0.0159622	0.00496298	-0.176514	-0.22583	-1.06128	0.026704	0.019549	0.997362	0.0646072	-0.459197	1.4788	-9.65812	0.00439379	0.00496147	-0.00611341	-0.424316	-0.111572	1.06812	
37	-0.877684	-0.0149446	0.479007	0.000783345	8.71744	0.245985	5.67445	-0.00762467	0.000283191	0.0107576	-0.63208	-0.0354004	-0.801758	0.617683	-0.0580553	-0.784281	0.000650253	9.53502	-0.691309	-2.33544	-0.0111808	0.0314787	-0.0180457	-0.926758	-0.0148926	-0.0507812	0.769949	-0.149313	-0.620317	-0.00954159	9.60579	-2.33394	1.82013	0.0124057	0.0150313	0.00543351	-0.984131	0.223389	-0.484863	0.74555	-0.172812	-0.584837	-0.268807	9.4235	0.586514	2.5703	-0.000941072	0.0124261	0.0125216	-0.86792	0.241455	-0.532715	0.747133	0.160729	-0.643655	-0.0408181	9.48291	3.01038	1.28982	-0.0366892	0.0227344	-0.010758	-0.855957	-0.388916	-0.52417	0.757767	0.11565	-0.638327	0.070374	9.72679	-0.053418	5.40637	0.0182672	0.0261858	-0.0311451	-0.953613	-0.210693	-0.607422	0.589481	0.0278073	-0.806268	0.0408843	9.26842	-0.307565	-3.05864	0.0319596	-0.0065155	-0.0147827	-1.04858	-0.0285645	-0.00463867	0.859671	-0.157829	-0.456597	-0.166056	8.834	-1.17595	5.64455	0.00665953	0.0185687	-0.0163729	-0.778076	0.218262	-0.734131	0.0782913	0.955893	0.281085	-0.0336349	-0.88086	3.30568	-8.61787	0.00109287	0.00449165	-0.0247973	-0.270752	-0.35791	1.01367	0.959777	0.0873659	-0.252932	0.0849757	5.27663	1.36539	8.91451	0.0118614	0.0103393	0.00381502	-0.178711	-0.226074	-1.05884	0.026704	0.019549	0.997362	0.0646072	-0.459197	1.4788	-9.65812	0.00439379	0.00496147	-0.00611341	-0.424316	-0.111572	1.06812	
38	-0.877728	-0.014777	0.478931	0.00119834	8.80447	0.223035	5.64977	-0.0117406	0.0058005	-0.0192125	-0.638916	-0.0310059	-0.803955	0.617884	-0.0581758	-0.784114	0.000664545	9.43922	-0.73271	-2.13773	0.00623745	0.0201861	-0.0172719	-0.928955	-0.0170898	-0.0554199	0.770365	-0.14904	-0.619865	-0.00960782	9.42646	-2.36552	1.84623	0.0177738	0.00971657	0.00593494	-0.984131	0.223389	-0.482666	0.745645	-0.172934	-0.584718	-0.268722	9.4877	0.496284	2.5488	0.00968402	0.00940227	0.00504297	-0.865479	0.239258	-0.52832	0.747357	0.160631	-0.64342	-0.0408093	9.24387	2.96059	1.09975	0.00611039	0.0125072	-0.0117527	-0.856201	-0.386719	-0.531006	0.757877	0.115726	-0.638172	0.0704686	9.64355	-0.196905	5.21788	0.000498791	0.0250864	-0.0125579	-0.953857	-0.20874	-0.616211	0.588977	0.0279415	-0.80663	0.0409051	9.02098	-0.288554	-2.92631	-0.0104611	-0.0188676	-0.00830226	-1.05688	-0.0351562	-0.000244141	0.859658	-0.157897	-0.456587	-0.166086	8.86439	-1.22229	5.63808	0.00404573	0.0141591	-0.0162232	-0.777832	0.216064	-0.731934	0.0784345	0.955697	0.281721	-0.0335285	-0.875688	3.31021	-8.599	-2.41131e-05	0.0037798	-0.0226624	-0.263916	-0.355469	1.00464	0.95977	0.0875975	-0.252882	0.08497	5.24711	1.36968	8.87336	0.00898257	0.00988506	-0.0024274	-0.174316	-0.223633	-1.06128	0.0265594	0.0193838	0.997371	0.064575	-0.455362	1.47139	-9.6267	0.00865752	0.0104494	-0.00744951	-0.430664	-0.118408	1.07495	
39	-0.87823	-0.0148991	0.478004	0.00140021	8.74205	0.276976	5.72589	0.00670516	0.0455881	-0.00458896	-0.629883	-0.0354004	-0.801758	0.617995	-0.0584783	-0.784004	0.000543533	9.48323	-0.698012	-2.28523	-0.0299429	0.0261942	-0.00571815	-0.931152	-0.0170898	-0.0529785	0.770365	-0.14904	-0.619865	-0.00960782	9.42646	-2.36552	1.84623	0.0177738	0.00971657	0.00593494	-0.984131	0.223389	-0.482666	0.745516	-0.172921	-0.584835	-0.268837	9.50112	0.581419	2.5294	0.00401309	-0.00446864	-0.0086138	-0.86792	0.241455	-0.537109	0.747357	0.160631	-0.64342	-0.0408093	9.24387	2.96059	1.09975	0.00611039	0.0125072	-0.0117527	-0.856201	-0.386719	-0.531006	0.758186	0.115229	-0.63792	0.0702416	9.75975	-0.166948	5.44021	-0.0140614	0.0250211	-0.0128667	-0.949463	-0.20874	-0.616211	0.58859	0.0279563	-0.806918	0.0407803	9.2306	-0.37768	-3.01814	0.0196195	0.0117337	-0.0221646	-1.05713	-0.0285645	-0.000488281	0.859649	-0.157943	-0.456579	-0.166111	8.88272	-1.1813	5.64809	0.000653912	0.014706	-0.0164531	-0.77832	0.224854	-0.734375	0.0784345	0.955697	0.281721	-0.0335285	-0.875688	3.31021	-8.599	-2.41131e-05	0.0037798	-0.0226624	-0.263916	-0.355469	1.00464	0.959765	0.0876146	-0.252891	0.0849761	5.25789	1.37558	8.8759	0.00440124	0.0101243	0.0032515	-0.178955	-0.223877	-1.06348	0.0265172	0.0193745	0.997366	0.064665	-0.470162	1.46288	-9.64054	0.000764986	0.00758317	-0.00948958	-0.42627	-0.11377	1.07275	
40	-0.878467	-0.0145544	0.47758	0.00106101	8.69692	0.318418	5.81784	-0.0140728	0.00557884	0.0206447	-0.634521	-0.0310059	-0.803955	0.617419	-0.0588759	-0.784428	0.000473813	9.66291	-0.778365	-2.35143	-0.0230837	-0.028582	-0.0110977	-0.930908	-0.0192871	-0.0576172	0.77016	-0.149555	-0.619992	-0.00981557	9.55541	-2.30643	1.90152	-0.00880696	-0.0175597	-0.00126878	-0.979736	0.216797	-0.477783	0.745356	-0.173033	-0.584894	-0.269076	9.61989	0.404614	2.52401	-0.0133781	0.00112448	-0.00328616	-0.870117	0.243652	-0.539307	0.747426	0.16038	-0.643366	-0.0413836	9.61118	2.94092	1.39149	-0.023648	0.0135067	-0.0272077	-0.851807	-0.382324	-0.533447	0.758136	0.115363	-0.637946	0.0703226	9.79438	-0.244378	5.4011	0.00634547	0.0068057	-0.0286942	-0.95166	-0.20874	-0.616211	0.58924	0.0278511	-0.806447	0.0407991	9.39154	-0.28659	-3.04915	0.0189088	0.0491282	-0.020288	-1.05713	-0.032959	-0.00463867	0.859707	-0.158105	-0.456421	-0.166094	8.84032	-1.2454	5.63352	0.000197705	0.0156778	-0.0155818	-0.775879	0.218506	-0.739014	0.0781624	0.955392	0.282846	-0.0334084	-0.878242	3.31411	-8.5936	0.00556012	0.00512062	-0.0226823	-0.268555	-0.35791	1.01147	0.959838	0.0873376	-0.252727	0.0849248	5.25059	1.42094	8.91262	-0.0107039	0.0216165	0.00114185	-0.181396	-0.219482	-1.06812	0.0264928	0.0193977	0.997369	0.0646242	-0.47105	1.47657	-9.66531	0.00508783	0.00680192	-0.00660773	-0.426514	-0.111572	1.07275	
41	-0.87831	-0.0142559	0.477877	0.00109268	8.61556	0.244691	5.77405	-0.0210657	-0.0297387	0.00858284	-0.631836	-0.0375977	-0.803711	0.617228	-0.0589279	-0.784574	0.000394761	9.74986	-0.806225	-2.24287	-0.0166428	-0.00583491	-0.0202169	-0.928955	-0.0148926	-0.0507812	0.770275	-0.149634	-0.619828	-0.00997378	9.58607	-2.2365	1.74251	0.0178568	0.0191747	-0.00215941	-0.981934	0.218994	-0.480225	0.745411	-0.173102	-0.584832	-0.269015	9.61144	0.656032	2.54483	0.00238161	0.00912673	0.00903352	-0.870117	0.243652	-0.537109	0.747248	0.160828	-0.643493	-0.0408782	9.48115	2.94084	1.20784	0.044175	-0.00216783	-0.0033862	-0.855957	-0.388916	-0.52417	0.758143	0.115493	-0.63792	0.0702736	9.80452	-0.249778	5.48805	0.00364349	0.0128853	-0.027626	-0.949707	-0.206543	-0.618408	0.590125	0.0276872	-0.805821	0.0404839	9.26239	-0.344245	-2.91027	-0.00828823	0.0984049	-0.0262611	-1.05273	-0.032959	-0.0065918	0.859689	-0.158007	-0.45648	-0.166118	8.84975	-1.24656	5.62516	0.0112648	0.0112321	-0.0227761	-0.778076	0.220459	-0.731934	0.0783503	0.955355	0.282927	-0.0333344	-0.872522	3.33935	-8.5992	-0.000141185	0.00505845	-0.0233899	-0.270996	-0.355469	1.00928	0.959814	0.0873122	-0.252843	0.084876	5.17677	1.2682	8.96549	-0.000125905	0.00194511	0.000755021	-0.176514	-0.22583	-1.07251	0.0265279	0.0194288	0.997369	0.0646058	-0.467395	1.46468	-9.64936	0.00502459	0.00346229	-0.00615632	-0.426514	-0.111572	1.07495	
42	-0.877627	-0.0137647	0.479145	0.00138422	8.81542	0.150965	5.64757	-0.0174395	-0.0617207	-0.00213467	-0.640869	-0.0375977	-0.799561	0.618202	-0.0586685	-0.783827	-3.5408e-05	9.45823	-0.774423	-2.30372	-0.00794237	0.0528964	-0.0259435	-0.924561	-0.0192871	-0.0600586	0.770373	-0.149281	-0.619784	-0.0103721	9.50988	-2.0972	1.9131	0.00332764	0.00878494	-0.021556	-0.979736	0.216797	-0.480225	0.745594	-0.173307	-0.584622	-0.268834	9.45652	0.620745	2.62111	-0.010751	0.0112149	0.0118438	-0.865723	0.241455	-0.537109	0.747329	0.160978	-0.643402	-0.04025	9.43112	2.92389	1.21526	-0.00168612	0.0231317	0.00348671	-0.856201	-0.382324	-0.528809	0.758199	0.115786	-0.637801	0.0702653	9.73016	-0.208054	5.34176	0.01392	0.0119536	-0.0281152	-0.949463	-0.20874	-0.611816	0.59151	0.0278409	-0.804809	0.0402933	9.09961	-0.373864	-2.79081	0.00742771	0.0740555	-0.0216701	-1.05518	-0.0285645	-0.00244141	0.859622	-0.158022	-0.456649	-0.165984	8.81694	-1.17777	5.6509	0.00490791	0.00517486	-0.0120848	-0.780029	0.216064	-0.731934	0.0783503	0.955355	0.282927	-0.0333344	-0.872522	3.33935	-8.5992	-0.000141185	0.00505845	-0.0233899	-0.270996	-0.355469	1.00928	0.959639	0.087894	-0.253288	0.0849279	5.29332	1.43207	8.91402	0.0254577	-0.0087031	0.00299675	-0.178955	-0.223877	-1.06348	0.0266852	0.0193892	0.997353	0.0647945	-0.464907	1.45485	-9.63305	-0.00337835	0.000298835	-0.0100562	-0.421875	-0.115967	1.07031	
43	-0.877435	-0.0135477	0.479502	0.00112688	8.89352	0.205489	5.64811	-0.000561697	-0.00191105	0.0183296	-0.636475	-0.0375977	-0.797363	0.618555	-0.058493	-0.783561	-0.000127003	9.47923	-0.656679	-2.25773	-0.00861874	0.0245672	-0.0270468	-0.931152	-0.0170898	-0.0600586	0.770422	-0.149076	-0.619772	-0.0104541	9.37841	-2.20015	1.95924	0.00379057	0.00538297	-0.00731353	-0.986328	0.223633	-0.484863	0.74559	-0.17327	-0.584673	-0.268758	9.39859	0.441704	2.40836	0.0183208	-0.000722574	-0.0029876	-0.861328	0.241455	-0.530518	0.747343	0.160534	-0.643476	-0.040567	9.39718	2.59985	1.16878	-0.00908299	-0.00657977	-0.00887277	-0.854004	-0.382324	-0.528809	0.758165	0.115833	-0.637821	0.0703739	9.60441	-0.0435333	5.28834	-0.00635924	0.00747699	-0.016785	-0.947266	-0.20874	-0.611816	0.592634	0.0273675	-0.804017	0.0399165	9.09759	-0.273811	-2.92539	-0.00787893	0.0633385	-0.0138903	-1.05493	-0.032959	-0.0065918	0.859585	-0.158004	-0.456703	-0.166045	8.89868	-1.24307	5.59068	0.00716742	0.0173114	-0.0230658	-0.771484	0.218262	-0.727295	0.0783349	0.955166	0.283571	-0.0333043	-0.878983	3.32055	-8.58088	0.00446043	0.00302034	-0.0231751	-0.266113	-0.35791	1.00928	0.959543	0.0880053	-0.253646	0.0848288	5.31887	1.49932	8.84721	0.00117923	0.00151981	0.0022511	-0.178955	-0.22168	-1.06128	0.026746	0.0193891	0.997349	0.06484	-0.45929	1.48111	-9.6405	6.57803e-05	0.0018453	-0.00824388	-0.42627	-0.116211	1.07031	
44	-0.877675	-0.0133006	0.47907	0.00117934	8.71104	0.270236	5.67876	-0.0163898	0.0146545	-0.00767111	-0.634277	-0.0354004	-0.799561	0.618685	-0.0587599	-0.783439	-0.000565883	9.58132	-0.711704	-2.30073	-0.0228762	0.019431	-0.0221564	-0.928955	-0.0148926	-0.0600586	0.770109	-0.149523	-0.620047	-0.010827	9.56644	-2.11694	1.99002	-0.0227531	-0.0118205	-0.00315231	-0.981934	0.221191	-0.482422	0.74527	-0.173358	-0.584924	-0.269041	9.53601	0.56884	2.69466	-0.0149825	-0.00930182	-0.013711	-0.868164	0.24585	-0.534912	0.746976	0.161275	-0.643759	-0.0398938	9.48781	3.04119	1.27766	0.0130989	-0.00644278	-0.0108795	-0.851807	-0.384521	-0.52417	0.758015	0.116011	-0.637958	0.070466	9.72439	-0.124598	5.38379	0.011446	0.00684525	-0.0201176	-0.953857	-0.206543	-0.614014	0.593572	0.0273765	-0.803322	0.0399451	9.22811	-0.299586	-2.84879	0.0108815	0.0529589	-0.0107104	-1.05933	-0.0307617	-0.0131836	0.859643	-0.15782	-0.456636	-0.166101	8.80834	-1.19474	5.64117	0.00930031	0.0179201	-0.0174236	-0.780273	0.220459	-0.736572	0.0785394	0.954978	0.28417	-0.0331137	-0.869961	3.31582	-8.58105	-0.00223749	0.00559176	-0.0223127	-0.263916	-0.355469	1.00928	0.959583	0.0881177	-0.253455	0.0848285	5.25493	1.36566	8.88975	0.00643621	0.0129488	-0.000426462	-0.178955	-0.223877	-1.05908	0.0265698	0.0192301	0.997363	0.0647335	-0.46565	1.47623	-9.64155	0.00411324	0.00703417	-0.00671682	-0.433105	-0.114014	1.07495	
45	-0.877805	-0.0130104	0.478837	0.00197521	8.78347	0.190165	5.73246	-0.0232306	0.0090922	-0.0252246	-0.634521	-0.0310059	-0.803955	0.618869	-0.0587771	-0.783291	-0.00095733	9.47408	-0.725566	-2.23483	-0.0128097	0.0198732	-0.0299259	-0.924561	-0.0192871	-0.0576172	0.769938	-0.150004	-0.620129	-0.0115781	9.47308	-2.154	1.81666	-0.018318	-0.00234949	-0.0132373	-0.984131	0.221191	-0.480225	0.744782	-0.173675	-0.585195	-0.269598	9.48836	0.569747	2.49397	-0.0130449	-0.0135843	-0.0144917	-0.870117	0.241455	-0.534912	0.746896	0.160664	-0.643975	-0.0403604	9.40196	2.94484	1.12055	-0.0326931	-0.014464	-0.0121581	-0.858398	-0.384766	-0.521973	0.757851	0.116086	-0.638136	0.070483	9.76101	-0.0921796	5.29608	-0.010483	0.00175906	-0.0157582	-0.951904	-0.199951	-0.618408	0.594089	0.0271183	-0.802945	0.040027	9.20959	-0.290351	-2.91343	0.0273001	0.0342545	-0.00490216	-1.05933	-0.0285645	-0.0090332	0.859556	-0.158019	-0.456744	-0.166069	8.86063	-1.25019	5.63109	-0.000768254	0.00548187	-0.0136441	-0.775879	0.220459	-0.736572	0.0785394	0.954978	0.28417	-0.0331137	-0.869961	3.31582	-8.58105	-0.00223749	0.00559176	-0.0223127	-0.263916	-0.355469	1.00928	0.959585	0.0883203	-0.253383	0.084814	5.29263	1.40714	8.90258	0.00682111	0.0113651	-0.000274941	-0.178955	-0.223877	-1.06348	0.0265565	0.0192305	0.997361	0.0647727	-0.461066	1.46174	-9.65011	0.00364334	0.00549209	-0.00908206	-0.426514	-0.111572	1.07275	
46	-0.877989	-0.0130225	0.478498	0.00219393	8.656	0.203769	5.69103	0.00533302	0.00905084	-0.00466012	-0.630127	-0.0288086	-0.801758	0.618771	-0.058756	-0.78337	-0.00121248	9.58512	-0.777913	-2.22281	-0.0189029	0.00531533	-0.0281318	-0.926758	-0.0170898	-0.0578613	0.769438	-0.150351	-0.620645	-0.0126238	9.52582	-2.06188	1.8906	-0.0430624	-0.0190765	-0.0323129	-0.984131	0.217041	-0.484619	0.744475	-0.173641	-0.585581	-0.269631	9.50436	0.607431	2.57397	0.000418209	-0.015266	-0.00638698	-0.870117	0.243652	-0.532715	0.746035	0.160235	-0.645087	-0.0402252	9.38245	2.77278	1.22184	0.0158794	-0.0462083	0.0110131	-0.860596	-0.384521	-0.526367	0.757709	0.115966	-0.638336	0.0704025	9.67492	-0.209775	5.36005	-0.00283795	-0.000652908	-0.0199633	-0.953857	-0.206543	-0.609863	0.594275	0.0268619	-0.802821	0.0399299	9.18778	-0.33972	-2.75792	-0.00221304	0.020347	-0.0148811	-1.05713	-0.032959	-0.017334	0.859648	-0.157824	-0.456599	-0.166175	8.87452	-1.23835	5.59702	0.00699877	0.0158082	-0.0139581	-0.778076	0.220459	-0.734375	0.0785394	0.954978	0.28417	-0.0331137	-0.869961	3.31582	-8.58105	-0.00223749	0.00559176	-0.0223127	-0.263916	-0.355469	1.00928	0.95956	0.0885973	-0.253396	0.0847681	5.2415	1.39383	8.85613	0.0124271	0.0105687	-0.00169927	-0.174316	-0.22583	-1.06348	0.026487	0.0192368	0.997369	0.0646799	-0.475295	1.4643	-9.64415	0.00835931	0.00988477	-0.00848261	-0.428711	-0.111816	1.07031	
47	-0.877807	-0.0131493	0.478831	0.0018963	8.75143	0.308316	5.72967	0.00989229	-0.0231295	0.010777	-0.640869	-0.0354004	-0.801758	0.618721	-0.0585576	-0.783424	-0.00119156	9.53453	-0.787487	-2.28174	0.00313857	0.0072663	-0.0310061	-0.924561	-0.0148926	-0.0578613	0.769277	-0.150344	-0.620842	-0.012852	9.52313	-2.314	1.74958	-0.00949526	-0.0128775	-0.0185266	-0.986084	0.212646	-0.473145	0.744376	-0.173382	-0.585815	-0.269562	9.46085	0.579135	2.44967	0.0276186	0.00243883	-0.00995175	-0.863525	0.24585	-0.539307	0.745682	0.16039	-0.645472	-0.039988	9.41432	3.08266	1.28621	0.0266022	-0.0310284	-0.00482592	-0.860596	-0.382568	-0.521973	0.757391	0.116045	-0.638668	0.0706785	9.70818	-0.0940424	5.32823	0.0129949	-0.00888282	-0.0082112	-0.95166	-0.210693	-0.611816	0.594017	0.0267416	-0.803011	0.0400125	9.25468	-0.3456	-2.88324	0.0162947	0.0065213	-0.0115928	-1.05298	-0.0263672	-0.0131836	0.859648	-0.157828	-0.456626	-0.166096	8.89211	-1.25735	5.57502	0.00775077	0.0116694	-0.014223	-0.771484	0.218506	-0.734375	0.0781444	0.9546	0.285543	-0.0331242	-0.892249	3.31514	-8.59434	0.00571204	0.00266195	-0.0260586	-0.270752	-0.360107	1.00488	0.959516	0.0888897	-0.253453	0.0847877	5.2919	1.48778	8.8911	0.0124153	0.00713692	0.00353134	-0.178955	-0.223877	-1.06348	0.0265031	0.0192567	0.997363	0.0647563	-0.471498	1.47562	-9.62446	-0.00196177	0.00410157	-0.00825562	-0.426514	-0.109375	1.07031	
48	-0.877561	-0.0129396	0.479288	0.00166846	8.77059	0.246224	5.72702	-0.00677436	-0.0212485	0.0111856	-0.638916	-0.0310059	-0.801758	0.618573	-0.0582993	-0.783561	-0.00137789	9.49726	-0.771723	-2.36946	-0.00462593	0.00903571	-0.0346284	-0.926514	-0.0192871	-0.0576172	0.769051	-0.149903	-0.621225	-0.0129884	9.60597	-2.04046	1.83025	0.0129705	-0.0113373	-0.0152745	-0.984131	0.217041	-0.477783	0.744246	-0.173298	-0.585998	-0.269579	9.55905	0.643921	2.55199	0.00339021	-0.00208472	-0.00486065	-0.86792	0.243652	-0.534912	0.74548	0.160423	-0.645702	-0.0399116	9.47663	2.82085	1.12908	0.000138618	-0.00110046	-0.0139361	-0.860596	-0.384766	-0.517334	0.757135	0.116262	-0.638909	0.0708892	9.75067	-0.182422	5.2991	0.0232154	-0.0146207	-0.0121186	-0.955811	-0.210693	-0.611816	0.593919	0.0269453	-0.803059	0.0403852	9.19368	-0.313468	-2.84787	0.0268852	0.00194278	-0.00665393	-1.05298	-0.0263672	-0.00683594	0.859679	-0.157771	-0.456591	-0.166085	8.89927	-1.22858	5.63222	0.00937154	0.0184989	-0.0170967	-0.782471	0.222656	-0.739014	0.0783493	0.954572	0.285588	-0.0330535	-0.873725	3.32067	-8.58813	-0.00109873	0.00410862	-0.0221413	-0.273193	-0.35791	1.00024	0.959531	0.0888845	-0.25342	0.0847209	5.3222	1.41779	8.88678	0.00162911	0.0136418	-0.0022972	-0.178955	-0.22168	-1.06128	0.0265031	0.0192567	0.997363	0.0647563	-0.471498	1.47562	-9.62446	-0.00196177	0.00410157	-0.00825562	-0.426514	-0.109375	1.07031	
49	-0.877118	-0.0127751	0.480101	0.0016628	8.6752	0.176237	5.67584	0.000781728	-0.0505393	-0.00316812	-0.638916	-0.03125	-0.799561	0.618195	-0.0575571	-0.783914	-0.0012107	9.55979	-0.684036	-2.34257	0.00622041	-0.0059964	-0.0381625	-0.930908	-0.0192871	-0.0600586	0.768653	-0.150091	-0.621656	-0.013748	9.51446	-2.05098	1.76876	-0.0346809	-0.0160672	-0.0256644	-0.986328	0.217041	-0.475586	0.744107	-0.173204	-0.586308	-0.26935	9.44351	0.537762	2.47608	0.00979106	-0.0119132	0.00551841	-0.86792	0.241455	-0.532715	0.745023	0.161497	-0.64602	-0.0389612	9.45417	2.96156	1.12598	0.0465315	-0.000973311	-0.0090767	-0.860596	-0.382568	-0.517334	0.756668	0.11666	-0.639348	0.0712611	9.7124	-0.220706	5.31236	0.0139963	-0.0107508	-0.0149238	-0.956055	-0.206543	-0.607666	0.593834	0.0270455	-0.803109	0.0405797	9.25292	-0.320966	-2.87979	0.0184872	0.00258205	-0.00754465	-1.05298	-0.0285645	-0.0131836	0.859721	-0.157796	-0.456507	-0.166075	8.79807	-1.2583	5.61179	0.00147761	0.0157342	-0.0130584	-0.769287	0.218506	-0.736572	0.0785597	0.95451	0.285751	-0.0329531	-0.875534	3.31823	-8.58889	0.00933865	0.00445815	-0.0237585	-0.273193	-0.35791	1.00464	0.959521	0.0890653	-0.253404	0.0846938	5.27188	1.42783	8.93817	0.0140034	0.00682883	0.00227935	-0.178955	-0.223877	-1.06348	0.0264827	0.0192048	0.997363	0.0647795	-0.462754	1.48156	-9.64436	-0.00390002	0.0052525	-0.0076715	-0.424316	-0.111572	1.07715	
50	-0.876718	-0.0128427	0.48083	0.00168059	8.80339	0.202762	5.66305	0.00495952	-0.0693278	-0.00404641	-0.634521	-0.0288086	-0.801758	0.617839	-0.0572707	-0.784215	-0.00132725	9.47371	-0.615923	-2.42398	-0.00609041	-0.00739889	-0.037784	-0.928711	-0.019043	-0.0529785	0.76847	-0.149512	-0.622017	-0.0139713	9.52437	-2.15173	1.75538	0.0192054	-0.0153849	-0.021949	-0.981934	0.221191	-0.478027	0.744061	-0.173178	-0.586456	-0.269169	9.58135	0.530843	2.53787	0.0166243	-0.00774105	0.00656162	-0.86792	0.243652	-0.530518	0.745024	0.161421	-0.646038	-0.0389659	9.48091	2.86425	1.01943	0.00852987	0.00495975	-0.0145729	-0.860596	-0.382568	-0.517334	0.756302	0.116972	-0.639704	0.0714397	9.80101	-0.0877697	5.28743	0.0118076	-0.00416168	-0.018845	-0.953613	-0.212891	-0.605225	0.593748	0.0269646	-0.803171	0.040638	9.26749	-0.338448	-3.01473	0.0197468	0.00420458	-0.00969618	-1.05078	-0.0285645	-0.0153809	0.859744	-0.157711	-0.456494	-0.166072	8.84011	-1.20294	5.61223	0.00882517	0.0156386	-0.0202356	-0.778076	0.220459	-0.736572	0.0787141	0.954467	0.285854	-0.0329234	-0.888242	3.33647	-8.60464	0.00279048	0.00200079	-0.0252067	-0.270996	-0.353271	1.00684	0.959506	0.0892497	-0.253434	0.0845808	5.2924	1.43736	8.90639	0.00713798	0.008859	-0.00442992	-0.178711	-0.226074	-1.05884	0.0265633	0.0192718	0.997356	0.0648343	-0.470002	1.48446	-9.64113	0.00210133	0.00220801	-0.00610951	-0.42627	-0.11377	1.07495	
51	-0.876214	-0.0133024	0.481735	0.00181635	8.76329	0.153999	5.60086	0.0202234	-0.0368478	-0.0159236	-0.63916	-0.0268555	-0.799561	0.617363	-0.0567811	-0.784625	-0.00137999	9.34447	-0.678678	-2.41739	0.0120357	-0.0108972	-0.0340908	-0.92627	-0.0256348	-0.0527344	0.768329	-0.149281	-0.622249	-0.0138728	9.42618	-2.14793	1.74019	0.0401279	-0.0212385	-0.0100676	-0.984131	0.217041	-0.473389	0.744295	-0.172649	-0.586531	-0.268699	9.41267	0.651937	2.43569	0.062395	0.00900342	0.00929301	-0.863281	0.239258	-0.532715	0.74478	0.162144	-0.646187	-0.0381216	9.37306	2.8443	1.23574	0.0435973	0.00732763	-0.00556899	-0.860352	-0.391357	-0.521973	0.756215	0.117074	-0.639788	0.0714392	9.67994	-0.170738	5.32295	0.00224779	0.00120131	-0.0107267	-0.955811	-0.20874	-0.607422	0.593512	0.0267549	-0.803344	0.0408176	9.14831	-0.338276	-2.77597	0.018864	-0.00926804	-0.00447782	-1.05518	-0.0263672	-0.0131836	0.859733	-0.157592	-0.456526	-0.166158	8.88938	-1.27958	5.57381	0.0105859	0.0173018	-0.0225081	-0.780029	0.216064	-0.729492	0.0789718	0.954296	0.28636	-0.0328746	-0.874274	3.32469	-8.58041	0.00136223	0.0029468	-0.024995	-0.270996	-0.355469	1.00024	0.959436	0.0893627	-0.253682	0.0845083	5.25523	1.39595	8.90348	0.010671	-0.00113159	0.0013524	-0.176758	-0.223633	-1.06348	0.0266495	0.0193052	0.997341	0.0650208	-0.458847	1.47683	-9.63629	-0.00767157	0.00186968	-0.0076535	-0.424316	-0.109375	1.06567	
52	-0.875464	-0.014367	0.483067	0.00145499	8.78429	0.177799	5.53332	0.0555342	-0.0765336	-0.00346845	-0.640869	-0.0356445	-0.795166	0.616469	-0.0560053	-0.785384	-0.00106599	9.6181	-0.740625	-2.32499	0.0187645	-0.0224811	-0.0355548	-0.928711	-0.0234375	-0.0551758	0.768306	-0.148503	-0.622477	-0.0132177	9.62067	-2.05843	2.08121	0.0842195	-0.0171466	-0.00302907	-0.984131	0.214844	-0.477783	0.74413	-0.172637	-0.586789	-0.268599	9.57874	0.585532	2.61217	-0.00341906	-0.0135369	3.17181e-05	-0.870117	0.239258	-0.534912	0.744543	0.163394	-0.646224	-0.0367789	9.54934	2.79231	1.15823	0.0783859	0.0129139	0.00348182	-0.862549	-0.38916	-0.517334	0.755637	0.117583	-0.640293	0.0721956	9.76254	-0.142261	5.31294	0.0540817	-0.022906	-0.0116963	-0.955811	-0.210693	-0.603271	0.59305	0.0266204	-0.803673	0.0411464	9.28907	-0.353552	-2.98406	0.0424635	-0.0121764	-0.0104801	-1.05078	-0.0263672	-0.0090332	0.859778	-0.157631	-0.456462	-0.166062	8.84044	-1.13433	5.66688	-0.0030225	0.0144846	-0.00827784	-0.778076	0.222656	-0.731934	0.0792114	0.954253	0.286454	-0.0327339	-0.885311	3.34196	-8.58659	0.0133891	0.00755618	-0.0207706	-0.270996	-0.355469	1.00244	0.959399	0.0896015	-0.253733	0.0845202	5.30249	1.45043	8.84484	0.00966906	0.0178598	0.00210651	-0.182861	-0.234863	-1.06567	0.0267057	0.0193029	0.997331	0.0651589	-0.476556	1.48951	-9.63761	0.000142549	0.00517623	-0.00869559	-0.430908	-0.114014	1.07275	
53	-0.874651	-0.0156718	0.484499	0.0007215	8.96259	0.355093	5.575	0.0605378	-0.0669273	0.000826453	-0.638428	-0.0419922	-0.790771	0.616168	-0.0554983	-0.785656	-0.00110385	9.53546	-0.683827	-2.38691	0.00486882	-0.00232897	-0.0404698	-0.928711	-0.0212402	-0.0458984	0.768347	-0.148429	-0.622434	-0.0136698	9.48781	-2.29252	1.75241	0.00240911	0.0110297	-0.0121835	-0.988281	0.210449	-0.475342	0.74386	-0.173076	-0.586995	-0.268614	9.61047	0.516239	2.40071	-0.000751317	-0.00597767	0.00731496	-0.865723	0.241455	-0.52832	0.744177	0.164928	-0.646331	-0.0354272	9.48088	2.84305	0.958721	0.0874309	0.00416705	-0.0096084	-0.860352	-0.391357	-0.517334	0.75503	0.118392	-0.640792	0.0727852	9.76582	-0.0723181	5.20636	0.0216617	-0.014893	-0.0226112	-0.953369	-0.217285	-0.605225	0.593348	0.0265928	-0.803459	0.0410487	9.31372	-0.325529	-2.98226	0.0122674	0.0416938	-0.0224294	-1.05493	-0.0307617	-0.0109863	0.859762	-0.157737	-0.456483	-0.165988	8.85285	-1.28752	5.62255	0.0082273	0.00949522	-0.0182579	-0.773682	0.218262	-0.729492	0.0791419	0.954232	0.286544	-0.0327076	-0.894455	3.3341	-8.58661	0.0187757	0.00707014	-0.0244746	-0.273193	-0.35791	1.00464	0.959401	0.0894288	-0.253775	0.0845631	5.21094	1.47606	8.87748	-0.00621471	0.00649556	0.00837734	-0.180908	-0.226074	-1.06128	0.0267431	0.0193229	0.997338	0.0650321	-0.461713	1.49121	-9.63713	0.00996023	0.003017	-0.00647601	-0.424072	-0.11377	1.07495	
54	-0.874091	-0.0160276	0.485497	0.000750537	8.85934	0.328531	5.51717	0.00185797	-0.0513957	-0.0169316	-0.645264	-0.0378418	-0.79541	0.615684	-0.0548842	-0.786079	-0.00108061	9.46964	-0.650978	-2.33251	-0.00317138	-0.0136578	-0.0356161	-0.928467	-0.0256348	-0.0456543	0.768286	-0.147795	-0.622668	-0.0133039	9.49742	-2.00856	1.83857	0.0557035	0.00526231	-0.00861394	-0.988281	0.212646	-0.475342	0.744002	-0.172716	-0.587063	-0.268306	9.37045	0.56974	2.5062	0.00660429	0.00612247	0.00355165	-0.86792	0.241455	-0.532715	0.744074	0.1652	-0.646419	-0.0347208	9.49135	3.03559	1.20809	-0.00317437	0.0164451	-0.00199318	-0.860107	-0.395752	-0.512695	0.754708	0.118876	-0.641046	0.0731002	9.79718	-0.0446802	5.33043	0.0349181	-0.00154872	-0.0116084	-0.958008	-0.206543	-0.592529	0.593556	0.0268167	-0.80329	0.0412034	9.20425	-0.328804	-2.84444	0.0200518	0.0166907	-0.0128746	-1.05298	-0.0263672	-0.0090332	0.859684	-0.157724	-0.456679	-0.165865	8.81992	-1.1258	5.61416	0.00272139	0.00534534	-0.0115947	-0.780273	0.220459	-0.729492	0.0791419	0.954232	0.286544	-0.0327076	-0.894455	3.3341	-8.58661	0.0187757	0.00707014	-0.0244746	-0.273193	-0.35791	1.00464	0.959288	0.0894505	-0.254189	0.0845798	5.30966	1.34	8.87713	0.0158714	-0.00803665	0.00261642	-0.180908	-0.226074	-1.05884	0.0268268	0.0193534	0.997336	0.0650074	-0.46792	1.47388	-9.66997	0.00550696	-0.000261128	-0.0063374	-0.428711	-0.111816	1.06812	
55	-0.873637	-0.0162554	0.486304	0.00130508	8.93311	0.276832	5.48426	0.00261738	-0.031611	-0.0210221	-0.645264	-0.0378418	-0.791016	0.615384	-0.0545549	-0.786337	-0.000953475	9.36579	-0.684038	-2.38171	0.00801872	-0.00871917	-0.0238358	-0.928467	-0.027832	-0.0478516	0.768296	-0.147601	-0.622703	-0.013251	9.50173	-2.03837	1.84312	0.0182097	0.00296166	-0.00848271	-0.981934	0.214844	-0.477783	0.744042	-0.172505	-0.587077	-0.268299	9.52775	0.447154	2.42685	0.012612	0.00917446	-0.00559648	-0.874268	0.234863	-0.534668	0.743943	0.165229	-0.646568	-0.0346146	9.27771	2.77073	0.978278	0.00796856	-0.00745048	-0.00811514	-0.862305	-0.393555	-0.515137	0.754576	0.118732	-0.641202	0.0733267	9.64004	-0.188275	5.14605	-0.00738877	0.00645416	-0.00473108	-0.953857	-0.208496	-0.598877	0.593695	0.0267413	-0.803216	0.0406746	9.1652	-0.396933	-2.9167	-0.00904336	0.0141103	-0.0180215	-1.05298	-0.0285645	-0.0131836	0.859604	-0.157862	-0.456747	-0.165959	8.84119	-1.16374	5.64575	-0.00366817	0.00341331	-0.00982138	-0.780273	0.218506	-0.739014	0.0786965	0.95398	0.287503	-0.0327315	-0.880193	3.33544	-8.57702	0.0114013	0.00412717	-0.0241584	-0.270996	-0.353271	1.00903	0.959188	0.0895461	-0.254508	0.0846492	5.26088	1.47428	8.86298	0.000644591	0.000679636	0.00573915	-0.180908	-0.228271	-1.06348	0.0268526	0.0192346	0.997339	0.0649932	-0.464584	1.47912	-9.64221	0.00370586	0.00493349	-0.00878123	-0.421875	-0.11377	1.07495	
56	-0.873544	-0.0164879	0.486465	0.00114966	8.8501	0.302177	5.50458	0.0229222	-0.0178987	0.00117475	-0.649902	-0.0334473	-0.791016	0.615264	-0.0545839	-0.786429	-0.000854496	9.47011	-0.646163	-2.42643	-0.0038053	0.000788173	-0.0127905	-0.928467	-0.0256348	-0.0480957	0.768228	-0.147374	-0.622846	-0.0129975	9.47554	-2.11498	1.91406	0.0278291	0.00409616	-0.000144593	-0.986084	0.212646	-0.477783	0.743892	-0.17231	-0.587252	-0.268458	9.52873	0.522424	2.43247	0.00305064	0.0021577	-0.0133561	-0.872314	0.239258	-0.532715	0.743735	0.165399	-0.646768	-0.0345421	9.54642	2.69449	1.09119	0.00445314	0.00107971	-0.00652521	-0.858154	-0.391357	-0.517334	0.75457	0.118773	-0.641189	0.0734405	9.71645	-0.0730478	5.34467	0.00646033	0.0137757	-0.0133773	-0.958008	-0.20874	-0.607422	0.593623	0.0267874	-0.803281	0.0404349	9.16191	-0.261048	-2.83435	0.0159154	0.00667598	-0.0232339	-1.05713	-0.032959	-0.0109863	0.859564	-0.157973	-0.456789	-0.165945	8.91355	-1.35385	5.56571	-0.00217291	0.0085239	-0.0125416	-0.775879	0.220459	-0.729736	0.0783083	0.9539	0.287866	-0.0327995	-0.886676	3.32376	-8.58542	0.0223684	0.0042028	-0.0225575	-0.270996	-0.353271	1.00684	0.959156	0.0895384	-0.254596	0.084752	5.32703	1.3982	8.83075	0.00407266	0.00457553	0.0118447	-0.180908	-0.230469	-1.06104	0.0268727	0.0192061	0.99734	0.0649788	-0.481218	1.48366	-9.63587	0.00466876	0.00526449	-0.0106586	-0.42627	-0.116211	1.07275	
57	-0.873055	-0.0163309	0.487347	0.000464624	8.93969	0.395014	5.54098	-0.0122124	-0.0278842	0.0068647	-0.649902	-0.0334473	-0.782471	0.615621	-0.0546886	-0.786142	-0.000895832	9.46397	-0.668443	-2.39018	-0.00246641	0.0421209	-0.0192174	-0.928467	-0.0256348	-0.0432129	0.768122	-0.147542	-0.62294	-0.0128697	9.43948	-2.12325	1.65696	0.00260432	-0.0070272	0.000463803	-0.988281	0.210449	-0.475342	0.743881	-0.17225	-0.587235	-0.268561	9.44128	0.536004	2.38444	0.00230715	0.0084798	-0.00875672	-0.874512	0.239258	-0.530518	0.743821	0.165217	-0.646706	-0.0347	9.36722	2.81498	1.13191	-0.0353102	-0.00175837	-0.0203533	-0.860352	-0.386963	-0.512695	0.754493	0.118474	-0.641301	0.0737374	9.79302	-0.179526	5.30089	-0.0122413	0.0105386	-0.0113018	-0.956055	-0.206543	-0.603271	0.593297	0.026664	-0.803528	0.0403794	9.18176	-0.404154	-2.80774	0.0258431	-0.00533713	-0.00983691	-1.05054	-0.0349121	-0.0109863	0.859574	-0.158039	-0.45675	-0.165938	8.8488	-1.25783	5.60683	0.00430304	0.0165952	-0.0164273	-0.778076	0.218262	-0.731934	0.0781495	0.953724	0.288504	-0.0326854	-0.876374	3.32537	-8.58663	0.00719537	0.00621303	-0.022599	-0.263916	-0.355469	1.00928	0.959216	0.0895148	-0.254367	0.0847916	5.26352	1.43338	8.88909	-0.0052104	0.024656	0.00505384	-0.183105	-0.228271	-1.06348	0.0267462	0.0191159	0.997346	0.0649639	-0.465917	1.48235	-9.64943	0.00261633	0.00827401	-0.00677722	-0.42627	-0.11377	1.06812	
58	-0.873001	-0.0160135	0.487456	0.000580921	8.90243	0.342815	5.52451	-0.0256746	-0.0124059	0.00339485	-0.651855	-0.0400391	-0.788818	0.615941	-0.0546264	-0.785895	-0.000748263	9.54369	-0.71596	-2.4028	-0.00278978	0.0273885	-0.013108	-0.924072	-0.027832	-0.0478516	0.76803	-0.147343	-0.623105	-0.0126211	9.60226	-2.04837	2.01034	-0.00730999	8.62586e-05	0.00769055	-0.986084	0.210449	-0.470947	0.744053	-0.171767	-0.587307	-0.26824	9.51798	0.563534	2.49741	0.0260287	0.00766865	-0.000312097	-0.867676	0.239258	-0.52832	0.743481	0.165401	-0.647032	-0.0350387	9.38855	3.08425	1.122	0.0124501	-0.00743132	-0.0382799	-0.860107	-0.393555	-0.515137	0.754597	0.118132	-0.641233	0.0738176	9.71905	-0.103575	5.25935	-0.0188007	0.0243603	0.0031494	-0.953613	-0.208496	-0.596924	0.593048	0.0266657	-0.803708	0.0404568	9.23943	-0.320467	-2.90592	0.0240708	-0.0120306	-0.012531	-1.05298	-0.0285645	-0.00683594	0.859616	-0.157919	-0.456698	-0.165982	8.83028	-1.22269	5.60428	0.011519	0.0189812	-0.0187528	-0.778076	0.222656	-0.727295	0.0782576	0.953696	0.288573	-0.0326343	-0.898604	3.3378	-8.60496	0.00539172	0.00547826	-0.0233223	-0.273193	-0.35791	1.00928	0.959246	0.0894818	-0.254273	0.0847687	5.27566	1.36813	8.87345	0.000345254	0.0192576	0.000919991	-0.17627	-0.230225	-1.06567	0.0267271	0.0191069	0.997344	0.0650067	-0.47731	1.47282	-9.66484	0.000258053	0.00795118	-0.00885276	-0.42627	-0.11377	1.07275	
59	-0.872702	-0.0152878	0.488013	0.000395974	8.86559	0.267571	5.47572	-0.0200576	-0.0353487	0.0280561	-0.651855	-0.0400391	-0.786621	0.616099	-0.0548672	-0.785755	-0.000665903	9.59171	-0.60137	-2.32564	-0.0207676	0.0237187	-0.0153393	-0.930908	-0.019043	-0.0505371	0.76797	-0.147113	-0.623238	-0.0124021	9.47492	-2.16171	1.76417	0.0375911	-0.00195357	0.00208699	-0.990479	0.212646	-0.475342	0.743949	-0.171729	-0.587444	-0.268251	9.49648	0.589265	2.48225	0.00602901	0.000878141	-0.00187298	-0.86792	0.241455	-0.530518	0.743364	0.165037	-0.647224	-0.0356851	9.47215	2.89669	1.14577	-0.00703572	0.00363822	-0.0317388	-0.862305	-0.393555	-0.515137	0.754623	0.117903	-0.641238	0.0738706	9.79728	-0.217254	5.30113	0.00679462	0.0102659	-0.0083513	-0.953857	-0.208496	-0.598877	0.592895	0.0267531	-0.803822	0.0403758	9.27189	-0.319218	-2.9307	0.0184311	-0.00294795	-0.0266907	-1.05298	-0.0285645	-0.00463867	0.859689	-0.157862	-0.456589	-0.165956	8.80588	-1.21703	5.62228	0.00542456	0.0177273	-0.0155115	-0.780273	0.220459	-0.731934	0.0783027	0.953664	0.288674	-0.0325832	-0.890925	3.33115	-8.56787	0.0109495	0.00598808	-0.0231959	-0.270996	-0.351074	1.00684	0.959307	0.0895248	-0.254001	0.0848404	5.29723	1.39524	8.91372	0.00663495	0.0212412	-0.000684733	-0.176758	-0.219482	-1.06812	0.0266774	0.0190928	0.997346	0.0649981	-0.468442	1.49754	-9.67272	0.00695414	0.00870478	-0.00815563	-0.419678	-0.111572	1.07031	
60	-0.872342	-0.014534	0.488681	0.000315909	8.89874	0.198758	5.47507	-0.0248032	-0.0287797	0.00770376	-0.651855	-0.0378418	-0.784668	0.616492	-0.0549179	-0.785443	-0.000811738	9.40647	-0.736001	-2.44933	0.00185551	0.0375234	-0.022174	-0.926514	-0.019043	-0.0505371	0.767945	-0.147064	-0.623282	-0.0123285	9.59131	-1.95379	1.94428	-0.000414984	0.0106584	0.00357158	-0.986084	0.214844	-0.470947	0.743989	-0.171547	-0.587509	-0.268113	9.46848	0.607894	2.51296	0.00402592	-0.00197604	0.0010932	-0.865479	0.239258	-0.52832	0.743134	0.165613	-0.64736	-0.0353423	9.48264	3.03082	1.11667	0.0213386	-0.000398798	-0.0124059	-0.858154	-0.391357	-0.510498	0.754574	0.117865	-0.641282	0.0740476	9.77754	-0.238218	5.30623	0.0113293	0.00883424	-0.013477	-0.955811	-0.212891	-0.605225	0.592498	0.02708	-0.804098	0.040486	9.16834	-0.400593	-2.87919	0.0165458	-0.00751523	-0.0160919	-1.05078	-0.0285645	-0.00244141	0.859707	-0.15776	-0.456565	-0.166025	8.86143	-1.28952	5.58019	0.00900506	0.0198862	-0.0232157	-0.782471	0.220459	-0.739014	0.0784676	0.953499	0.28918	-0.0325205	-0.88944	3.33824	-8.56939	-0.00155337	0.00221392	-0.0241681	-0.270996	-0.355469	1.00928	0.959331	0.0896544	-0.253852	0.0848807	5.27706	1.39527	8.89738	0.00779155	0.0111753	0.00134089	-0.178711	-0.228271	-1.06348	0.026717	0.0191252	0.997335	0.0651335	-0.463353	1.48647	-9.65669	-0.00364023	0.00441206	-0.00656131	-0.428711	-0.111572	1.07495	
61	-0.872079	-0.0140514	0.489162	0.000628384	8.90234	0.200834	5.46287	-0.0190163	-0.0249854	-0.00373683	-0.652344	-0.0292969	-0.789062	0.616774	-0.0549219	-0.785221	-0.000876008	9.53379	-0.60095	-2.32503	-0.0247053	0.0292344	-0.00958722	-0.930664	-0.027832	-0.057373	0.767747	-0.147366	-0.623447	-0.0127481	9.54002	-2.0606	1.7577	-0.0188376	-0.00512628	-0.00737084	-0.990479	0.214844	-0.464111	0.743877	-0.171936	-0.587378	-0.268462	9.53011	0.678786	2.44372	-0.033313	0.0132402	-0.00775511	-0.86792	0.241455	-0.52832	0.743231	0.165178	-0.647344	-0.0356342	9.453	2.75822	0.918092	-0.0132495	0.00779429	-0.00773719	-0.862305	-0.395752	-0.515137	0.754566	0.117809	-0.641293	0.0741281	9.75713	-0.185683	5.1902	0.0033619	0.0119171	-0.0188091	-0.960205	-0.206543	-0.599121	0.592143	0.0271768	-0.804352	0.0405706	9.23519	-0.284497	-2.92588	0.028472	-0.00195539	-0.0169538	-1.04834	-0.0327148	-0.00878906	0.859731	-0.157594	-0.45658	-0.166016	8.86745	-1.16208	5.64524	0.0074686	0.0146838	-0.0153535	-0.778076	0.222656	-0.727295	0.0784676	0.953499	0.28918	-0.0325205	-0.88944	3.33824	-8.56939	-0.00155337	0.00221392	-0.0241681	-0.270996	-0.355469	1.00928	0.959295	0.0897371	-0.253959	0.0848798	5.32441	1.46698	8.85533	0.00492371	0.00953323	0.004342	-0.17627	-0.230225	-1.05884	0.026717	0.0191252	0.997335	0.0651335	-0.463353	1.48647	-9.65669	-0.00364023	0.00441206	-0.00656131	-0.428711	-0.111572	1.07495	
62	-0.871814	-0.0137647	0.489642	0.000916152	8.87278	0.277221	5.42596	-0.0156898	-0.0268805	-0.00132446	-0.656738	-0.0292969	-0.786865	0.617131	-0.0550929	-0.784929	-0.000908151	9.44604	-0.702081	-2.25159	0.0080477	0.0287746	-0.023283	-0.924072	-0.027832	-0.0478516	0.76758	-0.147786	-0.623545	-0.0131116	9.43193	-2.06365	1.82981	-0.0416951	-0.00475807	-0.00450161	-0.990479	0.214844	-0.473145	0.743707	-0.172641	-0.587118	-0.269049	9.64213	0.58642	2.5623	-0.0324837	0.00252605	0.00406678	-0.872314	0.239258	-0.534912	0.743122	0.164887	-0.647526	-0.0359445	9.4594	3.04477	1.03495	-0.0618609	-0.0145241	-0.0123575	-0.858154	-0.391357	-0.515137	0.754807	0.117328	-0.641129	0.0738454	9.75987	-0.104998	5.16616	-0.0374791	0.0261663	-0.0168321	-0.9646	-0.20874	-0.607422	0.591897	0.0274255	-0.804538	0.0403075	9.15538	-0.336109	-2.88788	0.0070957	-0.0068766	-0.0224357	-1.05518	-0.0285645	-0.00683594	0.859763	-0.157582	-0.456508	-0.166059	8.84164	-1.25748	5.62918	0.00553909	0.0193419	-0.019336	-0.773438	0.216309	-0.734131	0.0782726	0.95331	0.289863	-0.0324326	-0.880425	3.33808	-8.58266	0.00838715	0.00592444	-0.0237981	-0.273193	-0.353271	1.01123	0.959344	0.0894925	-0.253871	0.0848474	5.24961	1.46789	8.87704	-0.00910671	0.0198861	0.00437234	-0.180908	-0.226074	-1.06128	0.0266062	0.0189478	0.99734	0.0651585	-0.465327	1.47831	-9.63747	0.00515489	0.00624922	-0.00629945	-0.424072	-0.115967	1.07715	
63	-0.871555	-0.0134001	0.490113	0.00104542	8.96075	0.242157	5.43131	-0.0104242	-0.0204934	0.000315094	-0.649902	-0.0336914	-0.780273	0.617257	-0.0553443	-0.784812	-0.00109708	9.53246	-0.731712	-2.49456	-0.0319847	0.0281082	-0.0119976	-0.92627	-0.027832	-0.0527344	0.767589	-0.147835	-0.623524	-0.0130546	9.56725	-2.2042	1.77842	0.00182774	0.00300906	0.00220321	-0.983887	0.210449	-0.473145	0.743675	-0.172497	-0.587249	-0.268944	9.46484	0.656014	2.57938	0.011051	-0.00561599	-0.00143351	-0.870117	0.239258	-0.530518	0.743228	0.164311	-0.647518	-0.036529	9.46534	2.70962	1.15113	-0.0667492	0.00300262	-0.0193237	-0.862305	-0.393555	-0.512695	0.755016	0.11676	-0.641037	0.0734196	9.68265	-0.171861	5.33087	-0.0230653	0.0177455	-0.0144949	-0.953857	-0.20874	-0.607422	0.591545	0.0273162	-0.804806	0.0401959	9.24964	-0.309414	-2.93508	0.00852495	0.00125931	-0.0153259	-1.05298	-0.0285645	-0.00683594	0.859773	-0.157513	-0.456501	-0.166095	8.84169	-1.1944	5.60341	0.00780763	0.0173643	-0.0170221	-0.777832	0.214111	-0.734131	0.0782321	0.953191	0.290281	-0.0323043	-0.877855	3.32739	-8.58611	0.00681689	0.00764971	-0.023305	-0.266357	-0.351074	1.01123	0.959381	0.0892695	-0.253826	0.0848013	5.26719	1.32349	8.8916	-0.000205753	0.00847834	0.00421088	-0.181152	-0.223877	-1.06128	0.0266546	0.0189782	0.997343	0.0650943	-0.469998	1.47787	-9.65865	0.00469977	0.00345038	-0.00748195	-0.42627	-0.116211	1.07031	
64	-0.871499	-0.0132157	0.490219	0.000733488	8.9284	0.168082	5.40655	0.00700471	-0.00716626	0.0128439	-0.658936	-0.0292969	-0.780273	0.616809	-0.0554438	-0.785157	-0.000894996	9.58164	-0.608816	-2.33124	0.00244513	-0.0213578	-0.0114972	-0.930664	-0.0256348	-0.0480957	0.767697	-0.147922	-0.623374	-0.0128529	9.60066	-2.05946	1.9021	0.00461649	0.00849705	0.00844909	-0.988281	0.212646	-0.477783	0.743488	-0.17273	-0.587337	-0.269118	9.46787	0.602716	2.36607	-0.00284266	-0.00235241	0.00464371	-0.865723	0.241455	-0.52832	0.742944	0.164446	-0.647814	-0.0364486	9.5552	2.92623	1.24257	0.017334	-0.00891676	-0.0186075	-0.862305	-0.393555	-0.512695	0.755044	0.116438	-0.641075	0.0733112	9.7757	-0.20433	5.30715	-0.0268774	0.0121853	-0.00712642	-0.955811	-0.210693	-0.601074	0.591426	0.0274686	-0.804886	0.0402442	9.26426	-0.305369	-2.98715	0.0209752	0.00965729	-0.0232395	-1.05298	-0.0263672	-0.00683594	0.85978	-0.15754	-0.456486	-0.166072	8.88456	-1.20278	5.64907	0.00351426	0.0154229	-0.0135854	-0.778076	0.220703	-0.739014	0.0782321	0.953191	0.290281	-0.0323043	-0.877855	3.32739	-8.58611	0.00681689	0.00764971	-0.023305	-0.266357	-0.351074	1.01123	0.959367	0.0893216	-0.253861	0.0847997	5.33776	1.39291	8.88867	0.00709458	0.00803087	0.00220217	-0.181152	-0.223877	-1.06812	0.0266765	0.0189898	0.997337	0.0651619	-0.488152	1.48831	-9.66036	-0.00163899	0.00465021	-0.00722165	-0.422119	-0.109375	1.07495	
65	-0.871386	-0.0132918	0.490418	0.000636636	8.91676	0.287586	5.39492	0.00989832	-0.0206152	0.00297213	-0.656494	-0.0358887	-0.782471	0.616753	-0.0557174	-0.785182	-0.000899998	9.59361	-0.724781	-2.32804	-0.0139658	0.018852	-0.0134614	-0.92627	-0.0256348	-0.0527344	0.767557	-0.147991	-0.623529	-0.0128638	9.54128	-2.16725	1.74015	0.0151556	0.00102146	0.00297563	-0.990479	0.219238	-0.475586	0.743497	-0.172766	-0.587389	-0.268959	9.57837	0.556889	2.53081	0.0108659	-0.000397966	0.0104881	-0.869873	0.237061	-0.530273	0.742546	0.165638	-0.648031	-0.0352838	9.4911	2.79866	1.00798	0.0679989	-0.00407437	-0.00273757	-0.860352	-0.38916	-0.510498	0.754888	0.116666	-0.641199	0.0734703	9.71494	-0.152759	5.19621	0.00642098	0.00528123	-0.0191283	-0.958252	-0.206543	-0.599121	0.591536	0.0273634	-0.804819	0.0400484	9.16264	-0.334483	-2.8556	0.00259183	0.0224485	-0.0214463	-1.05737	-0.0263672	-0.00463867	0.8598	-0.157453	-0.456454	-0.166138	8.8328	-1.27625	5.6037	0.0100022	0.0181817	-0.0216502	-0.771729	0.222656	-0.731934	0.0782915	0.952953	0.29106	-0.03219	-0.891868	3.32731	-8.59573	0.000730628	0.00383197	-0.0230205	-0.266357	-0.353271	1.00684	0.959329	0.0893681	-0.253995	0.0847818	5.22359	1.4777	8.90704	0.0023918	0.00242781	0.00248375	-0.181152	-0.223877	-1.06128	0.0267106	0.0190371	0.99733	0.0652481	-0.453574	1.49565	-9.63764	0.0023223	0.0038797	-0.00566405	-0.42627	-0.116211	1.07275	
66	-0.871324	-0.0129433	0.490537	0.000757545	9.03704	0.192238	5.37745	-0.0184507	0.00348839	0.00268958	-0.654297	-0.0336914	-0.784668	0.616885	-0.0555987	-0.785087	-0.00058359	9.50881	-0.647138	-2.38644	0.00325857	0.0100293	-0.011403	-0.928467	-0.027832	-0.0527344	0.767744	-0.147876	-0.623328	-0.0128558	9.47518	-2.09241	1.80067	0.0342311	0.0171466	-0.0101765	-0.990479	0.219238	-0.477783	0.743581	-0.172937	-0.587271	-0.268872	9.44932	0.612896	2.48689	-0.0152424	0.00815344	0.00983801	-0.867676	0.237061	-0.532715	0.742439	0.165593	-0.648173	-0.0351399	9.5734	2.99001	1.08394	-0.0407657	0.00548334	-0.0081028	-0.862549	-0.38916	-0.510498	0.755032	0.116695	-0.641026	0.0734417	9.80598	-0.15277	5.31711	0.0119807	0.0221437	-0.0225984	-0.953857	-0.206543	-0.603271	0.591275	0.0277225	-0.804993	0.0401478	9.18171	-0.306425	-2.88118	0.021742	-0.00672672	-0.0178212	-1.05469	-0.0349121	-0.00878906	0.859675	-0.157416	-0.456711	-0.166115	8.86142	-1.15988	5.60507	0.0045032	0.00386807	-0.0190342	-0.780029	0.218262	-0.729492	0.0784428	0.952867	0.2913	-0.032184	-0.888762	3.32117	-8.56811	0.0156316	0.00341672	-0.0257587	-0.268555	-0.35791	1.01147	0.959209	0.0893293	-0.25445	0.0848151	5.33425	1.42443	8.88754	0.00266343	-0.00821306	0.00813381	-0.180908	-0.228271	-1.06128	0.0268641	0.0190569	0.99732	0.0653321	-0.484618	1.48268	-9.65241	-0.00136542	-0.000750649	-0.00784865	-0.421875	-0.111572	1.07275	
67	-0.871625	-0.012861	0.490005	0.000753957	8.90067	0.169981	5.38943	0.00158065	0.0240959	-0.00194233	-0.654541	-0.0292969	-0.782471	0.616939	-0.0556361	-0.785042	-0.000561888	9.48477	-0.590237	-2.32933	-0.00860418	0.0186817	-0.0152032	-0.928711	-0.0212402	-0.0505371	0.767783	-0.147836	-0.623289	-0.0128403	9.61617	-2.11902	1.79006	-0.0101511	0.00979	-0.0102061	-0.988281	0.212646	-0.473145	0.74359	-0.172755	-0.587409	-0.268663	9.55755	0.547964	2.45163	0.0225289	-0.00112115	-0.000630068	-0.867676	0.239258	-0.523926	0.742782	0.164674	-0.647987	-0.0356359	9.46878	2.79639	0.905119	-0.0232401	0.00753745	-0.00873509	-0.869141	-0.38916	-0.512695	0.755165	0.116699	-0.640883	0.073318	9.79441	-0.11351	5.18213	0.00046085	0.0219075	-0.0252291	-0.958252	-0.204346	-0.601318	0.591193	0.0276316	-0.805071	0.0398518	9.17489	-0.344186	-2.98008	-4.66774e-06	0.0161112	-0.0229374	-1.05322	-0.0241699	-0.0112305	0.859582	-0.157576	-0.456843	-0.166081	8.87857	-1.24627	5.62464	0.00142473	0.0120852	-0.0138016	-0.777832	0.216309	-0.734131	0.0782275	0.952771	0.291672	-0.0321939	-0.894994	3.32889	-8.59281	0.0152656	0.00472782	-0.0234253	-0.26416	-0.35083	1.00684	0.959186	0.0891166	-0.254601	0.0848408	5.30335	1.47696	8.8685	-0.0108112	0.0148026	0.00952115	-0.18335	-0.223877	-1.05908	0.0268946	0.0190471	0.997324	0.0652538	-0.478088	1.48264	-9.64038	0.00582433	0.00601106	-0.00921368	-0.426025	-0.120605	1.07056	
68	-0.871934	-0.013057	0.489448	0.000971715	8.81048	0.24994	5.42662	0.00250527	0.0198953	-0.0140285	-0.654297	-0.0314941	-0.782471	0.617025	-0.0559495	-0.784951	-0.000898257	9.46541	-0.62507	-2.32813	-0.0148099	0.0094126	-0.00814846	-0.924316	-0.0256348	-0.050293	0.767865	-0.148413	-0.623048	-0.0129416	9.56842	-2.14468	1.8052	-0.010343	0.0252023	0.016209	-0.990479	0.214844	-0.477783	0.743462	-0.172832	-0.587493	-0.268783	9.49109	0.567596	2.45777	-0.0132321	0.00299916	-0.00308316	-0.87207	0.237061	-0.534912	0.742938	0.164653	-0.647823	-0.03547	9.43243	2.96006	0.998375	-0.0314265	0.0162997	0.00451568	-0.864502	-0.391357	-0.510498	0.755403	0.116692	-0.640622	0.0731581	9.74201	-0.217195	5.24312	-0.0142682	0.0253631	-0.0264002	-0.958008	-0.210693	-0.605225	0.590959	0.0276073	-0.805256	0.0396062	9.18857	-0.319547	-2.92377	0.0221943	-0.00778576	-0.023568	-1.05054	-0.0307617	0.00170898	0.859548	-0.157618	-0.456901	-0.16606	8.83372	-1.19964	5.61862	0.00169337	0.00989658	-0.0153271	-0.778076	0.218262	-0.734131	0.0779812	0.952678	0.292041	-0.0321773	-0.881732	3.31884	-8.57901	0.0151921	0.00632022	-0.0239281	-0.266357	-0.353271	1.00464	0.959181	0.0889688	-0.254631	0.0849658	5.32622	1.34281	8.82752	0.0010258	0.00996816	0.00842196	-0.176514	-0.228027	-1.06128	0.0268148	0.0189148	0.99734	0.0650847	-0.465166	1.47161	-9.64797	0.00873235	0.00657823	-0.00921126	-0.42627	-0.116211	1.06812	
69	-0.872131	-0.0131587	0.489094	0.00127775	8.90446	0.307005	5.46154	-0.00335333	0.0147687	-0.0150794	-0.654297	-0.0358887	-0.784668	0.61726	-0.0564377	-0.784731	-0.00120143	9.44556	-0.713624	-2.27636	-0.0259453	0.03205	-0.0099872	-0.926514	-0.0212402	-0.0529785	0.767904	-0.148165	-0.623062	-0.0128158	9.49049	-2.02495	1.77292	0.0201819	5.701e-05	-0.00354978	-0.983887	0.212646	-0.473145	0.743551	-0.172883	-0.587428	-0.268646	9.4689	0.555491	2.45969	0.0064541	0.00797039	0.00980277	-0.872559	0.243652	-0.52832	0.743301	0.164357	-0.647461	-0.0358464	9.46186	2.88344	1.09214	-0.00224689	0.0190948	-0.0230403	-0.858154	-0.391357	-0.510498	0.755711	0.116616	-0.640261	0.0732563	9.70191	-0.0678448	5.28054	-0.00483552	0.0313275	-0.0125018	-0.953613	-0.210693	-0.603271	0.590797	0.0275267	-0.805379	0.0395734	9.11398	-0.351037	-2.90276	0.0173456	-0.00280082	-0.01357	-1.05298	-0.0285645	-0.00244141	0.859542	-0.157787	-0.456872	-0.166007	8.86329	-1.24083	5.59649	0.00105484	0.015578	-0.0106093	-0.778076	0.218262	-0.729492	0.0780121	0.952631	0.292197	-0.0320761	-0.872793	3.32162	-8.58813	0.0101023	0.00758509	-0.0217712	-0.268555	-0.353271	1.01147	0.95922	0.0889774	-0.254473	0.0849858	5.27511	1.41238	8.88438	0.00354075	0.0205074	0.00308047	-0.18335	-0.226074	-1.06128	0.0267913	0.0189131	0.99734	0.0651	-0.477586	1.48237	-9.62572	0.00261755	0.00819951	-0.00817517	-0.424072	-0.11377	1.06592	
70	-0.872364	-0.013015	0.488682	0.00141477	8.83394	0.262944	5.48282	-0.00605959	0.0127712	0.00191825	-0.649902	-0.0334473	-0.786865	0.617433	-0.0566651	-0.784579	-0.00124062	9.51884	-0.712273	-2.29126	-0.0118352	0.0197891	-0.0136022	-0.928711	-0.019043	-0.0505371	0.767922	-0.148613	-0.622932	-0.0128784	9.58868	-2.22174	1.85972	0.0125295	0.0127504	0.0135896	-0.990479	0.214844	-0.473145	0.743612	-0.172985	-0.58736	-0.268561	9.55133	0.51795	2.46975	-0.00286098	0.00232508	0.00706244	-0.87207	0.237061	-0.530273	0.743291	0.163618	-0.647631	-0.036346	9.47896	2.75116	1.13399	-0.0146146	-0.0189202	-0.0106103	-0.85376	-0.391357	-0.512695	0.756031	0.116287	-0.639971	0.0730249	9.77439	-0.160494	5.33197	-0.0125946	0.0260017	-0.0183816	-0.956055	-0.206543	-0.603271	0.590736	0.0277928	-0.805416	0.0395457	9.18644	-0.355384	-2.9433	0.0153494	0.00295836	-0.0182238	-1.05493	-0.0307617	-0.00244141	0.859636	-0.157735	-0.456713	-0.16601	8.87445	-1.25054	5.58824	0.00865254	0.0256806	-0.0162202	-0.782471	0.224854	-0.736572	0.0780729	0.952566	0.292406	-0.0319515	-0.875009	3.32373	-8.57901	0.00777174	0.00649456	-0.0222606	-0.270752	-0.35791	1.00244	0.959318	0.0888991	-0.254122	0.0850121	5.29251	1.38569	8.85876	0.00026019	0.0310983	0.00182928	-0.174072	-0.230225	-1.05884	0.0266014	0.01885	0.99735	0.0650462	-0.459707	1.47134	-9.6454	0.00385367	0.00978778	-0.00651506	-0.421875	-0.11377	1.07275	
71	-0.872577	-0.0128477	0.488306	0.00113999	8.92961	0.218126	5.55367	0.00481451	0.0211879	0.0119152	-0.6521	-0.0334473	-0.788818	0.617466	-0.0568214	-0.784542	-0.00117546	9.49792	-0.753046	-2.33566	-0.0111202	0.0170026	-0.00635171	-0.926514	-0.0212402	-0.0458984	0.768018	-0.148369	-0.62288	-0.0125154	9.44952	-2.03163	1.82464	0.0377284	0.00911153	0.00915312	-0.986084	0.214844	-0.475586	0.743549	-0.173316	-0.587298	-0.268659	9.57688	0.550828	2.48782	-0.0073053	0.00564997	0.0031671	-0.872559	0.243652	-0.534912	0.743254	0.164152	-0.647551	-0.0361339	9.45844	3.05689	1.23738	0.0416665	0.0135061	-0.0306043	-0.860352	-0.38916	-0.510498	0.756102	0.116096	-0.639885	0.0733417	9.5906	-0.184514	5.28705	-0.00859442	0.0190097	-0.00429076	-0.953857	-0.206543	-0.603271	0.590407	0.0278375	-0.805643	0.0398091	9.20939	-0.373621	-2.93793	0.0373597	-0.00950662	-0.0128005	-1.05933	-0.0307617	-0.00463867	0.8597	-0.157684	-0.456602	-0.166031	8.82555	-1.19778	5.62497	0.00797506	0.025598	-0.0175044	-0.778076	0.222656	-0.729736	0.078211	0.952455	0.292743	-0.0318491	-0.875703	3.32964	-8.58884	-0.00011154	0.00485704	-0.0228807	-0.270996	-0.355713	1.01147	0.95942	0.0889997	-0.253696	0.0850355	5.23581	1.39992	8.88725	0.0110566	0.0233806	0.00173039	-0.178711	-0.228271	-1.06128	0.0265963	0.018863	0.997344	0.0651319	-0.47405	1.47591	-9.63924	-0.0025595	0.00556377	-0.0082239	-0.42627	-0.115967	1.07495	
72	-0.872863	-0.0129414	0.487793	0.000784924	8.72822	0.233377	5.5454	0.010012	0.0136237	0.0106726	-0.647705	-0.03125	-0.791016	0.617248	-0.056959	-0.784703	-0.0010137	9.53057	-0.695636	-2.30438	-0.00845084	-0.00370622	-0.00680173	-0.924072	-0.027832	-0.0549316	0.768041	-0.148641	-0.622784	-0.0126257	9.60908	-2.04898	1.80516	-0.0184967	0.0128926	0.00617085	-0.984131	0.219238	-0.475586	0.74353	-0.17356	-0.587453	-0.268216	9.44197	0.633534	2.63625	0.00404805	-0.0135948	0.021592	-0.872314	0.241455	-0.530518	0.743465	0.163173	-0.647522	-0.0367372	9.4686	2.57531	0.973913	-0.0368623	0.00552439	0.00417044	-0.860352	-0.38916	-0.510498	0.756145	0.115953	-0.639867	0.0732817	9.7278	-0.269415	5.28949	-0.0135937	0.0163055	-0.0142443	-0.956299	-0.199951	-0.60791	0.589988	0.0278586	-0.805938	0.0400356	9.15306	-0.31067	-2.90437	0.0243013	-0.0122402	-0.0119077	-1.05273	-0.032959	0.00390625	0.859816	-0.157437	-0.456405	-0.166206	8.84474	-1.23467	5.6236	0.00767917	0.0190772	-0.0166882	-0.777832	0.216309	-0.736572	0.078211	0.952455	0.292743	-0.0318491	-0.875703	3.32964	-8.58884	-0.00011154	0.00485704	-0.0228807	-0.270996	-0.355713	1.01147	0.959415	0.0891559	-0.253658	0.0850425	5.28091	1.41046	8.88651	0.0152019	0.0130187	3.2102e-05	-0.178955	-0.223877	-1.06592	0.0265963	0.018863	0.997344	0.0651319	-0.47405	1.47591	-9.63924	-0.0025595	0.00556377	-0.0082239	-0.42627	-0.115967	1.07495	
73	-0.87286	-0.0128743	0.487801	0.000568252	8.79202	0.184011	5.56027	0.00424702	-0.00383737	0.016933	-0.649902	-0.03125	-0.786865	0.61703	-0.0566673	-0.784896	-0.000603671	9.51484	-0.669159	-2.34153	0.00504463	0.00655058	-0.0211215	-0.931152	-0.0168457	-0.0507812	0.76823	-0.148651	-0.622554	-0.0123079	9.53062	-2.37158	1.86203	0.0244112	0.019731	0.0155842	-0.988525	0.219238	-0.475586	0.743598	-0.173522	-0.587472	-0.268008	9.42352	0.568416	2.47248	0.0144065	0.00328663	0.0104177	-0.867676	0.239258	-0.532715	0.743128	0.16424	-0.647691	-0.0358082	9.5733	3.08357	1.32831	0.0280719	0.00779886	-0.0211394	-0.860352	-0.38916	-0.515137	0.756141	0.115715	-0.639881	0.0735746	9.72672	-0.118921	5.27709	0.00312859	0.00981286	-0.00211788	-0.960205	-0.210693	-0.605225	0.589461	0.0281013	-0.806287	0.040592	9.19822	-0.308452	-2.99944	0.0483702	-0.0121071	-0.00950611	-1.05713	-0.0285645	0.00170898	0.859871	-0.157446	-0.456298	-0.166206	8.83353	-1.12728	5.70131	-0.00181577	0.0158186	-0.0129217	-0.782227	0.218262	-0.734131	0.0783731	0.952283	0.293272	-0.0317156	-0.869672	3.34441	-8.57995	0.00497701	0.00521026	-0.0214658	-0.275391	-0.35791	1.00684	0.959396	0.0893689	-0.253638	0.0850946	5.26639	1.4844	8.83763	0.00749852	0.0126897	0.00413204	-0.181152	-0.223877	-1.05908	0.0265372	0.018792	0.997337	0.0652729	-0.465304	1.47921	-9.6268	-0.00152398	0.0074211	-0.00738196	-0.42627	-0.11377	1.07275	
74	-0.872706	-0.0130204	0.488073	0.000414608	8.85864	0.24659	5.51835	0.00605414	-0.0181352	-0.00250814	-0.647949	-0.0290527	-0.786865	0.616865	-0.0566778	-0.785025	-0.00041041	9.40498	-0.848893	-2.39184	0.0130918	0.00200363	-0.0147844	-0.930908	-0.019043	-0.0529785	0.768175	-0.148513	-0.622655	-0.0123133	9.53359	-1.90306	1.78848	0.0116437	-0.00384282	-0.0104283	-0.986328	0.219238	-0.477783	0.743526	-0.173787	-0.587492	-0.267994	9.51881	0.604037	2.50456	-0.0121719	-0.00548007	0.0115997	-0.870117	0.243652	-0.530518	0.743098	0.164511	-0.647686	-0.0352784	9.468	2.98074	0.932359	0.068256	0.0082864	-0.0145715	-0.858154	-0.391357	-0.515137	0.756033	0.116095	-0.639911	0.073825	9.86544	-0.140785	5.21176	0.0117196	0.0133484	-0.0159741	-0.953857	-0.20874	-0.607422	0.589461	0.0281013	-0.806287	0.040592	9.19822	-0.308452	-2.99944	0.0483702	-0.0121071	-0.00950611	-1.05713	-0.0285645	0.00170898	0.859841	-0.157526	-0.456338	-0.166178	8.87892	-1.21608	5.61077	0.00805046	0.0126312	-0.0145852	-0.782227	0.218262	-0.734131	0.078272	0.952233	0.293467	-0.0316651	-0.883918	3.33486	-8.60021	0.0139938	0.00864064	-0.0245994	-0.273193	-0.353271	1.00684	0.959395	0.0891061	-0.253725	0.0851128	5.29904	1.40545	8.87058	-0.00815751	0.00683509	0.00505678	-0.178711	-0.230469	-1.06348	0.0265971	0.0187697	0.997341	0.0652039	-0.476312	1.47216	-9.62834	0.00861607	0.00310256	-0.00900747	-0.433105	-0.116211	1.07715	
75	-0.872535	-0.01308	0.488375	0.000463025	8.87511	0.26252	5.49543	0.0011249	-0.0196411	-0.00498488	-0.654297	-0.0314941	-0.786865	0.616968	-0.0575098	-0.784884	-0.000613402	9.49014	-0.630663	-2.32222	-0.0434257	0.0346215	0.000338812	-0.928955	-0.0168457	-0.0483398	0.768126	-0.148488	-0.622723	-0.0122842	9.47755	-2.06659	1.91154	0.0113926	-0.00875261	-0.009991	-0.988281	0.210449	-0.475342	0.74354	-0.173645	-0.587555	-0.267907	9.43671	0.466051	2.46673	0.00231676	-5.90398e-05	0.000424276	-0.870117	0.241455	-0.52832	0.743158	0.164019	-0.647719	-0.0356838	9.36667	2.81253	1.14302	-0.0705433	-0.00329919	-0.0134688	-0.862549	-0.38916	-0.503662	0.7561	0.116014	-0.639838	0.0739037	9.67325	-0.253444	5.28693	-0.00362356	0.0161607	-0.0143275	-0.956055	-0.204346	-0.609863	0.588666	0.028706	-0.806833	0.0408587	9.12284	-0.284423	-2.94044	0.0338508	-0.027168	-0.0158365	-1.05273	-0.0307617	0.00390625	0.859854	-0.157678	-0.456278	-0.166131	8.79959	-1.26517	5.61379	0.00106586	0.0204054	-0.010776	-0.773682	0.218506	-0.734375	0.0782418	0.952211	0.293552	-0.0316036	-0.882643	3.3154	-8.57339	0.0143945	0.00844676	-0.0208818	-0.275391	-0.360107	1.00464	0.959444	0.0888309	-0.253589	0.0852619	5.25939	1.44792	8.89615	-0.0101447	0.0175843	0.0092749	-0.18335	-0.223877	-1.06592	0.0265685	0.0187685	0.997349	0.0650898	-0.454983	1.48079	-9.64742	0.00955739	0.0080095	-0.00914099	-0.424072	-0.11377	1.07495	
76	-0.872606	-0.01287	0.488255	0.000500068	8.98368	0.212629	5.53746	-0.0103888	0.0158755	0.00687595	-0.650146	-0.0290527	-0.791016	0.616244	-0.0577428	-0.785435	-0.000356005	9.48224	-0.605349	-2.30299	-0.00731684	-0.0314737	-0.0121191	-0.935303	-0.019043	-0.0505371	0.768132	-0.148624	-0.622685	-0.0121438	9.59593	-2.10587	2.08123	0.00168045	0.00587019	0.0143795	-0.988281	0.212646	-0.477783	0.743256	-0.173714	-0.587681	-0.268375	9.55211	0.44665	2.43147	-0.0171248	0.00196688	-0.0252448	-0.872559	0.243652	-0.530518	0.742975	0.164143	-0.647909	-0.0354815	9.59046	2.91371	1.17153	0.0415949	-0.00497889	-0.00917337	-0.860596	-0.382568	-0.512695	0.756101	0.115921	-0.639863	0.073822	9.78122	-0.165373	5.38163	-0.0115982	0.0105145	-0.0177435	-0.960693	-0.197754	-0.605713	0.587559	0.0286608	-0.807646	0.0407514	9.30057	-0.374102	-3.05325	0.0297874	-0.0480301	-0.0195833	-1.05249	-0.0373535	0.0126953	0.859792	-0.157738	-0.45639	-0.166087	8.8369	-1.12742	5.6576	0.00124966	0.00450521	-0.0145025	-0.784668	0.222656	-0.734375	0.0779926	0.952021	0.294232	-0.0316296	-0.872983	3.32746	-8.5862	0.0105113	0.00347134	-0.0244466	-0.275635	-0.355713	1.00903	0.959457	0.0886196	-0.253612	0.0852594	5.30044	1.34003	8.92553	-0.00202907	0.0100533	0.00554526	-0.180908	-0.226074	-1.06348	0.0266098	0.0188032	0.997353	0.0650076	-0.468393	1.48205	-9.66556	0.00389174	0.00520629	-0.0082552	-0.426514	-0.111572	1.07031	
77	-0.872667	-0.0127219	0.488149	0.000857567	8.75823	0.226484	5.4998	-0.0121459	-0.0130347	-0.0159001	-0.652344	-0.0292969	-0.786865	0.615635	-0.0580446	-0.785891	-0.000318301	9.55013	-0.811438	-2.33312	-0.00668965	-0.0101679	-0.0108325	-0.928955	-0.0146484	-0.0483398	0.767984	-0.149519	-0.622658	-0.0118699	9.50151	-2.16127	1.76411	0.0114876	-0.00807883	0.0135091	-0.990479	0.217041	-0.475586	0.74306	-0.173612	-0.588024	-0.268234	9.54991	0.736952	2.45514	0.0251918	-0.00750009	-0.0024787	-0.874512	0.241455	-0.52832	0.742938	0.163808	-0.648026	-0.0356769	9.42526	2.79184	0.983495	-0.0311273	-0.00986575	-0.0124217	-0.860352	-0.38916	-0.512695	0.756164	0.115777	-0.639819	0.0737787	9.68725	-0.174159	5.25001	-0.0139049	0.0140634	-0.00961595	-0.955811	-0.210693	-0.598877	0.587462	0.0285431	-0.80772	0.040757	9.05115	-0.360897	-2.86969	0.0164594	-0.000742877	-0.011175	-1.05298	-0.0285645	0.00390625	0.859655	-0.1578	-0.456587	-0.166196	8.87562	-1.24089	5.65411	0.00567416	0.00599837	-0.0222556	-0.778076	0.222656	-0.739014	0.0779611	0.951992	0.294337	-0.0316096	-0.879848	3.3152	-8.56789	0.0162563	0.00515846	-0.0219454	-0.268555	-0.355469	1.00464	0.959368	0.0888515	-0.253861	0.0852767	5.25942	1.4499	8.89451	0.0085387	-0.00429835	0.00477065	-0.176758	-0.221436	-1.06128	0.0266277	0.018806	0.99735	0.0650393	-0.460365	1.47265	-9.61332	0.00164664	0.00577914	-0.00871844	-0.428467	-0.116211	1.07275	
78	-0.872403	-0.0125758	0.488625	0.00101417	8.88293	0.240613	5.46994	-0.00718639	-0.0248805	0.00535761	-0.649658	-0.0356445	-0.784668	0.615512	-0.0581117	-0.785982	-0.000244524	9.51588	-0.72673	-2.42546	-0.00683316	0.000697324	-0.0122049	-0.933105	-0.0192871	-0.0551758	0.767803	-0.149929	-0.622782	-0.0119198	9.49917	-2.34404	1.8178	-0.026306	-0.0114121	0.0140366	-0.990479	0.217041	-0.473389	0.743125	-0.172976	-0.588209	-0.268057	9.43548	0.595822	2.45709	0.0137192	0.00456995	-0.00252225	-0.86792	0.241455	-0.530518	0.74294	0.163577	-0.648075	-0.0357946	9.51024	2.72189	1.12583	-0.0205855	0.00151092	-0.00904801	-0.862549	-0.386963	-0.515137	0.756057	0.115874	-0.63991	0.0739421	9.78309	-0.13987	5.29792	0.0100533	0.00397307	-0.0121476	-0.960449	-0.202148	-0.601318	0.58637	0.0283428	-0.808513	0.0409042	9.16507	-0.285986	-2.99211	0.0145816	-0.0426468	-0.0033612	-1.05933	-0.0285645	0.0124512	0.859425	-0.157864	-0.456953	-0.166318	8.88215	-1.22228	5.61273	0.000251445	-0.000812602	-0.025248	-0.778076	0.218262	-0.729492	0.0778823	0.951858	0.294795	-0.0315631	-0.874749	3.33353	-8.57989	0.0131925	0.00345517	-0.0249254	-0.270996	-0.353271	1.01807	0.959266	0.0889755	-0.254183	0.0853455	5.34068	1.34214	8.90549	0.00793164	-0.00511155	0.00629542	-0.180908	-0.228271	-1.06128	0.0267412	0.0188	0.997342	0.0651113	-0.471689	1.47193	-9.64659	-0.00158465	0.00199584	-0.00934596	-0.421875	-0.11377	1.07275	
79	-0.872065	-0.0124927	0.489231	0.000737122	8.90888	0.144623	5.45233	0.00256282	-0.0291468	0.0111846	-0.649902	-0.03125	-0.786865	0.615088	-0.0578816	-0.786331	-0.000212944	9.68691	-0.687025	-2.25201	-0.0129755	0.0107973	-0.0281281	-0.928711	-0.019043	-0.0505371	0.767721	-0.149728	-0.62293	-0.0119835	9.59324	-2.07121	1.66836	-0.0528754	-0.00514592	-0.0173481	-0.986328	0.223389	-0.473389	0.743067	-0.173098	-0.588256	-0.268037	9.50433	0.528245	2.36442	0.00638002	0.00300987	0.00472084	-0.86792	0.241455	-0.532715	0.742647	0.163981	-0.648332	-0.0353668	9.48941	2.76328	0.980839	0.00874538	-0.0143339	-0.00653405	-0.862305	-0.393555	-0.508301	0.755887	0.116052	-0.640054	0.074142	9.75327	-0.149141	5.27073	0.0161362	0.00216944	-0.022235	-0.958252	-0.202148	-0.607666	0.586553	0.0281882	-0.808385	0.0409137	9.22204	-0.400483	-3.15258	0.0342285	0.0386505	-0.0172559	-1.05273	-0.0307617	0.00610352	0.859296	-0.157966	-0.457118	-0.166434	8.88268	-1.20286	5.64398	0.00180684	0.0092538	-0.0181788	-0.780029	0.218262	-0.729492	0.0780685	0.951774	0.295026	-0.0314977	-0.870792	3.32699	-8.6132	0.00271208	0.00404926	-0.0213553	-0.273193	-0.35791	1.00464	0.959239	0.0889859	-0.254256	0.0854195	5.30004	1.45057	8.87443	-0.00845118	0.0140547	0.00462409	-0.180908	-0.230469	-1.05884	0.0267614	0.0187928	0.997339	0.0651508	-0.471532	1.47673	-9.65486	0.00468047	0.00788525	-0.00853072	-0.421875	-0.115967	1.07275	
80	-0.871701	-0.0127966	0.48987	0.000753318	8.91973	0.2011	5.39447	0.0123607	-0.0334107	-0.0092532	-0.654541	-0.0292969	-0.780273	0.615258	-0.05803	-0.786187	-0.000389496	9.61039	-0.782846	-2.3745	-0.0255733	0.0315248	-0.0179322	-0.931152	-0.0168457	-0.0483398	0.767661	-0.149413	-0.623079	-0.0120491	9.43304	-2.2378	1.80784	0.0197249	-0.00622315	-0.023669	-0.986084	0.210449	-0.475342	0.743071	-0.173122	-0.588366	-0.267769	9.59676	0.493331	2.50939	0.00478025	0.000563643	0.00428954	-0.874512	0.239258	-0.526123	0.742485	0.16412	-0.648495	-0.0351425	9.48473	2.9699	0.989051	0.0210287	-0.00807069	-0.00672992	-0.864746	-0.38916	-0.508301	0.755751	0.115896	-0.640258	0.0740145	9.71634	-0.1591	5.30495	-0.00934446	0.00389418	-0.0138142	-0.956055	-0.204346	-0.609863	0.587624	0.0280105	-0.807604	0.0411054	9.06315	-0.293962	-2.89404	0.0137865	0.0601106	-0.00922883	-1.04858	-0.0307617	0.00390625	0.859292	-0.157954	-0.457113	-0.166478	8.85535	-1.26792	5.59665	0.00867635	0.0178385	-0.0164405	-0.782471	0.222656	-0.727295	0.0782523	0.95171	0.295193	-0.0314063	-0.881736	3.30399	-8.59436	-0.00303819	0.00356172	-0.0233547	-0.268555	-0.35791	1.01147	0.959277	0.0889932	-0.254127	0.0853711	5.26546	1.37061	8.84765	0.0100833	0.0205859	-0.0025919	-0.178711	-0.230469	-1.06567	0.0267822	0.0188308	0.997339	0.0651355	-0.458988	1.46626	-9.65043	0.00282668	0.0059799	-0.00697868	-0.421875	-0.11377	1.06812	
81	-0.871698	-0.013241	0.489864	0.0008518	8.96049	0.248071	5.41321	0.0136439	0.0087577	-0.0120217	-0.649902	-0.0334473	-0.782471	0.61571	-0.0579966	-0.785835	-0.000740986	9.47542	-0.71328	-2.27481	-0.00963115	0.0265007	-0.0273202	-0.928955	-0.0168457	-0.0507812	0.767759	-0.149239	-0.623001	-0.0119903	9.45	-2.15463	1.84449	-0.000690751	0.00951481	-0.003019	-0.979736	0.2146	-0.475586	0.742943	-0.173112	-0.588468	-0.267905	9.40984	0.620583	2.4523	0.0139625	-0.00248088	-0.0063646	-0.867676	0.239258	-0.52832	0.742018	0.163696	-0.649131	-0.0352516	9.40739	2.72339	1.03286	-0.034778	-0.0198567	-0.000178061	-0.862549	-0.386963	-0.501465	0.755732	0.115632	-0.640357	0.073762	9.60399	-0.199032	5.25806	-0.0316261	0.00400854	-0.0188961	-0.958252	-0.206543	-0.609863	0.588303	0.0282536	-0.807084	0.0414459	9.12868	-0.35679	-3.00972	0.0266048	0.0403146	-0.0104754	-1.05713	-0.032959	0.00390625	0.859293	-0.157947	-0.457115	-0.166474	8.84315	-1.17852	5.62159	0.00672976	0.0151118	-0.0163244	-0.775879	0.220459	-0.727295	0.0782523	0.95171	0.295193	-0.0314063	-0.881736	3.30399	-8.59436	-0.00303819	0.00356172	-0.0233547	-0.268555	-0.35791	1.01147	0.959297	0.0890183	-0.254053	0.0853409	5.27194	1.43143	8.89698	0.00431931	0.0167369	-0.000589195	-0.17627	-0.230225	-1.06348	0.0268097	0.0188539	0.997334	0.0651986	-0.474265	1.4663	-9.63596	-0.00142338	0.00436122	-0.00641063	-0.424072	-0.11377	1.07495	
82	-0.871811	-0.013339	0.48966	0.000857347	8.85518	0.266485	5.44828	0.00667469	0.0154879	-0.00527637	-0.656494	-0.0336914	-0.782471	0.615706	-0.0582281	-0.785821	-0.00111498	9.57631	-0.752634	-2.33961	-0.0341036	0.0120135	-0.0191243	-0.928711	-0.0192871	-0.0554199	0.767436	-0.14946	-0.623337	-0.0124356	9.56863	-2.17352	1.88413	-0.0402834	-0.00310932	-0.00827052	-0.988281	0.212646	-0.470947	0.742805	-0.173164	-0.588537	-0.268101	9.5676	0.563455	2.53379	-0.00897956	-0.00388368	-0.0131111	-0.876953	0.243408	-0.52832	0.741573	0.164085	-0.649571	-0.0346865	9.49159	2.99018	1.14976	0.0360134	-0.0180521	-0.0078282	-0.860352	-0.386963	-0.505859	0.755625	0.115401	-0.640559	0.0734666	9.77856	-0.135942	5.24234	-0.0291884	0.00243889	-0.0161403	-0.960449	-0.204346	-0.601318	0.588987	0.0281205	-0.806596	0.0413028	9.15929	-0.357987	-2.88203	0.00387772	0.0797382	-0.0191184	-1.05713	-0.0285645	-0.00244141	0.859328	-0.158047	-0.457055	-0.166362	8.84539	-1.17559	5.59454	0.000413346	0.0156134	-0.00711913	-0.782471	0.220459	-0.727295	0.0782855	0.95159	0.295581	-0.0313164	-0.879841	3.33032	-8.56252	0.00397817	0.00576588	-0.0238741	-0.275635	-0.353271	1.00903	0.959353	0.0891326	-0.253806	0.0853198	5.30939	1.45128	8.90055	0.00680292	0.023842	-0.000696442	-0.178711	-0.228271	-1.06128	0.0267768	0.0188783	0.997332	0.0652391	-0.460068	1.47586	-9.64319	0.00293003	0.00876041	-0.00713667	-0.421631	-0.118164	1.07056	
83	-0.871748	-0.0134595	0.489768	0.00103008	8.89568	0.271326	5.50965	-0.00168867	-0.0137182	-0.00806037	-0.652344	-0.0292969	-0.784668	0.615933	-0.0582956	-0.785637	-0.00143035	9.59439	-0.758428	-2.38168	-0.0152212	0.027428	-0.0258567	-0.924316	-0.0234375	-0.0480957	0.767366	-0.149101	-0.623509	-0.0124832	9.58171	-2.1361	1.70865	0.0231539	0.00131994	-0.0120777	-0.988281	0.217041	-0.473389	0.742708	-0.1732	-0.588587	-0.26824	9.53733	0.494761	2.4171	-0.0044712	-0.000886882	-0.00926197	-0.874756	0.243652	-0.52832	0.741596	0.163836	-0.649591	-0.0349849	9.5293	2.84162	1.0453	-0.0125777	0.014615	-0.0170426	-0.866943	-0.384766	-0.508301	0.755451	0.115602	-0.640715	0.0735743	9.82436	-0.252805	5.37629	0.0228895	0.00182201	-0.0164998	-0.958496	-0.199951	-0.605713	0.589337	0.0278472	-0.806359	0.0411328	9.1477	-0.287908	-2.87487	-0.00378193	0.0464121	-0.0102556	-1.05737	-0.0263672	0.00390625	0.859338	-0.158157	-0.457026	-0.16629	8.8694	-1.2753	5.59968	0.00852952	0.0142863	-0.0146167	-0.780273	0.220459	-0.731934	0.0779465	0.951488	0.295997	-0.031319	-0.882979	3.33273	-8.58357	0.0189939	0.00622194	-0.0237224	-0.26416	-0.35083	1.00244	0.959375	0.0894854	-0.253628	0.0852321	5.23013	1.3168	8.96523	0.0233012	0.0127975	-0.00879478	-0.178711	-0.226074	-1.06348	0.0267651	0.0189274	0.997336	0.0651647	-0.468218	1.48592	-9.6569	0.00620216	0.00422119	-0.00469308	-0.421875	-0.11377	1.07031	
84	-0.871642	-0.0133742	0.489959	0.00122347	8.85541	0.210291	5.46514	-0.00542362	-0.0128595	-0.00499407	-0.654297	-0.0336914	-0.786865	0.616054	-0.0582214	-0.785548	-0.00157779	9.51418	-0.663437	-2.42117	-0.013386	0.0260287	-0.0303983	-0.930664	-0.0256348	-0.050293	0.767294	-0.149061	-0.623603	-0.0126448	9.58308	-2.13924	1.89652	-0.00273996	-0.00252147	-0.0149399	-0.986328	0.217041	-0.473389	0.742638	-0.1731	-0.588555	-0.268568	9.40372	0.478392	2.44374	-0.0189276	0.00387911	-0.0116044	-0.87207	0.237061	-0.530273	0.742086	0.163214	-0.649161	-0.0354873	9.53768	2.5667	1.08443	-0.0554607	0.0293281	-0.00878711	-0.86499	-0.384766	-0.510498	0.755374	0.115608	-0.640776	0.0738229	9.69744	-0.223803	5.26903	0.0108422	0.00660323	-0.00305891	-0.958008	-0.210693	-0.601074	0.590128	0.0279242	-0.805782	0.041053	9.15944	-0.368432	-2.88471	0.00974296	0.0486518	-0.0191477	-1.06152	-0.0285645	-0.00244141	0.859366	-0.158099	-0.457012	-0.166239	8.8886	-1.20892	5.58292	0.0114051	0.0169669	-0.0144624	-0.782471	0.222656	-0.731934	0.0779936	0.951363	0.296389	-0.0312929	-0.88937	3.32481	-8.58488	0.00302813	0.00348427	-0.0258445	-0.270996	-0.353271	1.00464	0.959289	0.089953	-0.253795	0.0852158	5.30748	1.32971	8.91436	0.0381927	-0.00668687	-0.00589265	-0.176514	-0.228027	-1.06567	0.0268157	0.0189448	0.997326	0.0652967	-0.472516	1.49099	-9.6175	-0.00176169	0.00628071	-0.00812943	-0.426514	-0.111572	1.07275	
